Lable;AccX1;AccY1;AccZ1;GyrX1;GyrY1;GyrZ1;AccX2;AccY2;AccZ2;GyrX2;GyrY2;GyrZ2;AccX3;AccY3;AccZ3;GyrX3;GyrY3;GyrZ3;AccX4;AccY4;AccZ4;GyrX4;GyrY4;GyrZ4;AccX5;AccY5;AccZ5;GyrX5;GyrY5;GyrZ5;AccX6;AccY6;AccZ6;GyrX6;GyrY6;GyrZ6;AccX7;AccY7;AccZ7;GyrX7;GyrY7;GyrZ7;AccX8;AccY8;AccZ8;GyrX8;GyrY8;GyrZ8;AccX9;AccY9;AccZ9;GyrX9;GyrY9;GyrZ9;AccX10;AccY10;AccZ10;GyrX10;GyrY10;GyrZ10;AccX11;AccY11;AccZ11;GyrX11;GyrY11;GyrZ11;AccX12;AccY12;AccZ12;GyrX12;GyrY12;GyrZ12;AccX13;AccY13;AccZ13;GyrX13;GyrY13;GyrZ13;AccX14;AccY14;AccZ14;GyrX14;GyrY14;GyrZ14;AccX15;AccY15;AccZ15;GyrX15;GyrY15;GyrZ15;AccX16;AccY16;AccZ16;GyrX16;GyrY16;GyrZ16;
ACW;0.8471616;0.0;0.33187774;0.0;0.28458342;0.26162675;0.7991266;0.23580787;0.44978166;0.2301603;0.3114981;0.31347713;0.7947598;0.15720524;0.41048035;0.4672472;0.3540471;0.31407085;0.77729255;0.32751092;0.45414847;0.82366914;0.4161884;0.33029884;0.6855895;0.77292573;0.77729255;1.0;0.45339403;0.41183457;0.5895197;1.0;0.6899563;0.67504454;0.3983772;0.4338017;0.6419214;0.7248908;0.5720524;0.49238077;0.3809618;0.3779933;0.6462882;0.65502185;0.6375546;0.43043736;0.3714625;0.3700772;0.6637555;0.57641923;0.6855895;0.45636255;0.37561846;0.36453593;0.6768559;0.52401745;0.7161572;0.48921433;0.38769048;0.3712646;0.65502185;0.5720524;0.7510917;0.48961014;0.3888779;0.36057788;0.65065503;0.55021834;0.8253275;0.47219473;0.38353452;0.35642192;0.6419214;0.57641923;0.8951965;0.4438947;0.37680587;0.3473184;0.6157205;0.6200873;0.930131;0.390659;0.35800514;0.34237087;0.59825325;0.7860262;0.88646287;0.3437562;0.3447457;0.32831982;0.59388644;0.7991266;0.930131;0.3176331;0.33089253;0.33326736
ACW;0.0;0.92105263;0.80263156;0.053304903;0.70149255;0.7761194;0.013157895;0.94736844;0.6184211;0.014925373;0.67164177;0.8123667;0.05263158;1.0;0.4473684;0.0063965884;0.69083154;0.8123667;0.078947365;0.7763158;0.38157895;0.0;0.70788914;0.91684437;0.118421055;0.69736844;0.18421052;0.24946696;0.80383795;0.8742004;0.118421055;0.55263156;0.15789473;0.6268657;0.8294243;0.91684437;0.14473684;0.5131579;0.14473684;0.663113;0.84648186;0.90618336;0.118421055;0.55263156;0.05263158;0.45842218;0.8251599;0.93603414;0.15789473;0.42105263;0.065789476;0.53304905;0.8678038;0.90191895;0.17105263;0.40789473;0.09210526;0.60554373;0.8933902;0.96162045;0.17105263;0.35526314;0.078947365;0.6204691;0.9211087;0.97228146;0.15789473;0.32894737;0.065789476;0.6076759;0.92537314;1.0;0.17105263;0.2631579;0.14473684;0.71428573;0.93603414;0.9765459;0.18421052;0.25;0.18421052;0.63539445;0.88272923;0.96588486;0.17105263;0.18421052;0.17105263;0.7185501;0.880597;0.96162045;0.21052632;0.17105263;0.21052632;0.8294243;0.90191895;0.95522386
ACW;0.7842105;0.0;0.40526316;0.0;0.13169165;0.12178801;0.7842105;0.19473684;0.2736842;0.29523554;0.17826553;0.17077088;0.76842105;0.31578946;0.27894738;0.5529979;0.23554604;0.1895075;0.72105265;0.38421053;0.33684212;0.82896143;0.29122055;0.24518201;0.6052632;0.9368421;0.75789475;1.0;0.3538544;0.31397218;0.6263158;0.80526316;0.54210526;0.6078694;0.2987152;0.29362956;0.6263158;0.5;0.74210525;0.50508565;0.28399357;0.24866167;0.6263158;0.5105263;0.7736842;0.50803;0.27810493;0.22644539;0.6105263;0.55789477;0.92105263;0.41220558;0.26605996;0.20877944;0.57894737;0.6526316;0.9736842;0.2735546;0.23394005;0.18763383;0.57894737;0.7473684;1.0;0.20717345;0.20208779;0.17585653;0.5473684;0.9052632;0.95789474;0.13302998;0.17960386;0.16300857;0.5368421;0.9736842;0.91052634;0.008297645;0.15283726;0.17826553;0.5631579;0.94736844;0.79473686;0.061563168;0.1541756;0.17773019;0.5842105;0.95789474;0.70526314;0.115899354;0.16675588;0.18495718;0.58947366;0.8947368;0.65789473;0.11830835;0.17103854;0.18040685
ACW;0.7644628;0.0;0.35123968;0.0;0.19843878;0.20583402;0.71487606;0.24793388;0.33471075;0.21261299;0.24424815;0.25472474;0.7107438;0.21487603;0.30991736;0.41187346;0.28677076;0.24876747;0.70247936;0.26859504;0.43801653;0.7943714;0.35188988;0.28307313;0.5785124;0.8305785;0.8140496;1.0;0.42871815;0.36955628;0.5289256;0.8636364;0.5661157;0.627157;0.36216104;0.3494248;0.59090906;0.5247934;0.6446281;0.5330731;0.34264585;0.3136812;0.61570245;0.44214877;0.7066116;0.5805259;0.34202957;0.320871;0.59504133;0.4752066;0.7644628;0.5700493;0.34141332;0.29293343;0.55785125;0.6198347;0.8636364;0.4539852;0.31594083;0.2871816;0.5165289;0.72727275;0.8719008;0.3890715;0.2890304;0.2697206;0.5;0.92561984;0.8512397;0.15324569;0.24157766;0.24404272;0.49586776;1.0;0.8305785;0.019720625;0.21199672;0.23294988;0.5082645;0.91322315;0.7768595;0.02978636;0.20932621;0.2516434;0.53305787;0.8305785;0.6404959;0.08258011;0.21959737;0.24383731;0.58264464;0.76859504;0.607438;0.101273626;0.23726377;0.25493017
ACW;0.76086956;0.0;0.4304348;0.054162487;0.21524574;0.2104313;0.70869565;0.26956522;0.3173913;0.19759278;0.23711133;0.25897694;0.7173913;0.21304348;0.30869564;0.34322968;0.2569709;0.25015044;0.7;0.20869565;0.3478261;0.64914745;0.31414244;0.27061182;0.5782609;0.78695655;0.8304348;1.0;0.40421262;0.3658977;0.526087;0.9217391;0.43913043;0.4882648;0.3227683;0.3313942;0.6043478;0.5782609;0.5826087;0.4096289;0.31795385;0.28425276;0.59130436;0.5608696;0.62173915;0.44874623;0.32918757;0.30250752;0.6304348;0.45652175;0.7;0.55305916;0.34924775;0.3099298;0.62173915;0.44347826;0.73913044;0.57412237;0.3452357;0.2898696;0.5869565;0.5217391;0.8695652;0.5460381;0.3362086;0.28304914;0.5478261;0.6347826;0.8652174;0.487663;0.3097292;0.27542627;0.526087;0.9652174;0.8695652;0.2567703;0.2533601;0.25997993;0.5043478;0.98695654;0.8913044;0.08324975;0.21223672;0.2328987;0.51304346;1.0;0.8304348;0.0;0.20561685;0.24513541;0.5608696;0.9391304;0.71304345;0.033701103;0.21344031;0.25235707
ACW;0.31578946;0.42105263;0.7894737;0.0;0.85346216;0.9339775;0.31578946;0.84210527;0.2631579;0.64412236;0.958132;1.0;0.31578946;1.0;0.10526316;0.69726247;0.921095;0.9919485;0.2631579;0.8947368;0.0;0.66183573;0.8921095;0.95974237;0.36842105;0.57894737;0.36842105;0.73429954;0.9098229;0.9500805;0.31578946;0.5263158;0.47368422;0.863124;0.9130435;0.94041866;0.42105263;0.68421054;0.31578946;0.8148148;0.9194847;0.9710145;0.42105263;0.42105263;0.42105263;0.92431563;0.9661836;0.99355876;0.47368422;0.21052632;0.47368422;0.942029;0.962963;0.9838969;0.47368422;0.36842105;0.42105263;0.9677939;0.94847023;0.96457326;0.5263158;0.31578946;0.31578946;0.9178744;0.9452496;0.9452496;0.42105263;0.47368422;0.42105263;0.9291465;0.958132;0.93719804;0.42105263;0.36842105;0.5263158;0.979066;0.958132;0.9388084;0.36842105;0.57894737;0.42105263;0.9178744;0.9452496;0.9452496;0.42105263;0.36842105;0.47368422;0.96135265;0.9436393;0.9452496;0.36842105;0.42105263;0.42105263;0.94847023;0.94041866;0.9436393
ACW;0.7932692;0.0;0.23076923;0.0;0.2319637;0.24056378;0.7019231;0.16346154;0.33653846;0.36311513;0.2998089;0.32704252;0.6682692;0.3125;0.19711539;0.57740086;0.35690397;0.33444816;0.65384614;0.36057693;0.23557693;0.7546584;0.39178213;0.36622074;0.57211536;0.7932692;0.59615386;1.0;0.46989965;0.449355;0.47596154;0.77884614;0.57211536;0.78738654;0.47061634;0.45580506;0.5673077;0.5144231;0.5192308;0.6067845;0.4347826;0.3834209;0.5817308;0.46634614;0.66346157;0.5840898;0.40898234;0.3834209;0.58653843;0.37980768;0.75961536;0.6273292;0.40850455;0.3671763;0.55288464;0.5192308;0.84134614;0.51600575;0.38676542;0.34400383;0.52403843;0.58653843;0.8942308;0.41137123;0.3592929;0.33946487;0.52403843;0.66346157;0.91346157;0.37123746;0.34065935;0.32441473;0.5;0.8269231;0.8557692;0.29240325;0.3246536;0.3279981;0.5;1.0;0.78365386;0.16459627;0.30148113;0.32345915;0.5144231;0.84134614;0.7355769;0.20592451;0.30912566;0.330387;0.53365386;0.875;0.6394231;0.2711419;0.3170091;0.32728142
ACW;0.039215688;1.0;0.19607843;0.0;0.7763158;0.82894737;0.078431375;0.60784316;0.078431375;0.3625731;0.8596491;0.94298244;0.09803922;0.5294118;0.0;0.4897661;0.87134504;0.9736842;0.11764706;0.33333334;0.039215688;0.49853802;0.90789473;0.98099416;0.1764706;0.27450982;0.09803922;0.4371345;0.88304096;1.0;0.15686275;0.05882353;0.13725491;0.748538;0.93274856;0.98976606;0.15686275;0.039215688;0.19607843;0.84502923;0.9576023;0.95467836;0.15686275;0.11764706;0.1764706;0.96783626;0.96783626;0.9605263;0.15686275;0.13725491;0.21568628;0.98976606;0.9663743;0.96198833;0.15686275;0.15686275;0.15686275;0.99415207;0.9634503;0.9707602;0.13725491;0.19607843;0.15686275;0.9736842;0.9576023;0.9707602;0.15686275;0.13725491;0.15686275;0.9649123;0.9590643;0.9722222;0.1764706;0.1764706;0.11764706;0.95614034;0.9663743;0.96929824;0.15686275;0.13725491;0.13725491;0.9502924;0.96783626;0.96929824;0.15686275;0.15686275;0.1764706;0.9722222;0.96929824;0.9663743;0.15686275;0.13725491;0.15686275;0.9576023;0.9649123;0.96198833
ACW;0.7714286;0.0;0.21904762;0.0;0.368667;0.3512051;0.7285714;0.17619048;0.35714287;0.41933104;0.42031482;0.4021151;0.7380952;0.33809525;0.26190478;0.65912443;0.45523855;0.43999016;0.7047619;0.4904762;0.2952381;0.7784063;0.47171667;0.44761437;0.6666667;0.61904764;0.4952381;1.0;0.5073783;0.49532712;0.5904762;0.96666664;0.6571429;0.9183473;0.51205117;0.53148055;0.63809526;0.76666665;0.53809524;0.59468764;0.4795868;0.48450565;0.6238095;0.6;0.64761907;0.55263156;0.47270045;0.4596655;0.6238095;0.55714285;0.6857143;0.6160846;0.48524347;0.47737333;0.64761907;0.47142857;0.75714284;0.7343827;0.50909984;0.4783571;0.64285713;0.45238096;0.8238095;0.76979834;0.51549435;0.4547467;0.60952383;0.64285713;0.9095238;0.6760944;0.49311364;0.45277914;0.56666666;0.71428573;0.97619045;0.5582882;0.46974915;0.44441712;0.552381;0.85714287;0.96666664;0.39695033;0.43384162;0.4220364;0.54761904;0.96666664;0.9238095;0.24471225;0.4021151;0.41096902;0.53809524;1.0;0.8666667;0.19945893;0.38440728;0.43064436
ACW;0.88584477;0.0;0.3196347;0.0;0.2858358;0.29157805;0.716895;0.22374429;0.42465752;0.30795407;0.32007656;0.36495107;0.7351598;0.26940638;0.31506848;0.50382817;0.36431307;0.35559335;0.716895;0.31506848;0.33789954;0.70523185;0.40153125;0.37388346;0.6666667;0.5479452;0.65296805;1.0;0.46809867;0.44917056;0.47031963;0.93607306;0.61187214;0.7632922;0.45342407;0.45108464;0.65296805;0.6255708;0.5479452;0.5910251;0.44300297;0.3847299;0.6392694;0.51141554;0.7123288;0.63568693;0.44385368;0.40280733;0.6484018;0.5296804;0.7579909;0.63908976;0.44917056;0.3813271;0.60730594;0.58447486;0.88584477;0.5686942;0.42683965;0.37728626;0.5936073;0.66210043;0.98173517;0.5470013;0.40706083;0.36516377;0.56164384;0.8767123;0.9269406;0.4098256;0.3751595;0.370906;0.5525114;0.96347034;0.913242;0.23202892;0.3345385;0.346661;0.55707765;1.0;0.89041096;0.16822629;0.31135687;0.3543173;0.58447486;0.9497717;0.7625571;0.20672055;0.32433006;0.36282432;0.5936073;0.9086758;0.65753424;0.21097405;0.33560187;0.3666525
ACW;0.73390555;0.0;0.37768242;0.0;0.22499406;0.3100499;0.69527894;0.22317597;0.35193133;0.38655263;0.32478023;0.3544785;0.68240345;0.2446352;0.27896994;0.6284153;0.39249226;0.35899264;0.65665233;0.39055794;0.37339056;0.85578525;0.43882158;0.3815633;0.5665236;0.8111588;0.57939917;1.0;0.5138988;0.42361605;0.53218883;0.84549356;0.50214595;0.7277263;0.48895225;0.39985746;0.58798283;0.55364805;0.5965665;0.48016155;0.411024;0.36897126;0.5965665;0.46781117;0.69957083;0.58850086;0.40603468;0.3782371;0.6223176;0.45064378;0.69527894;0.7797577;0.438584;0.369684;0.5665236;0.58798283;0.8197425;0.65359944;0.4160133;0.36065573;0.5450644;0.71244633;0.888412;0.54217154;0.37942505;0.3544785;0.54077256;0.8497854;0.888412;0.35376573;0.34830126;0.3456878;0.51502144;0.9141631;0.8369099;0.2173913;0.31789023;0.34046093;0.49356222;1.0;0.832618;0.005702067;0.28201473;0.33238298;0.55364805;0.90128756;0.71244633;0.08624376;0.29175577;0.3307199;0.5665236;0.7939914;0.6180258;0.17391305;0.3216916;0.34307435
ACW;0.7914438;0.0;0.24064171;0.0;0.2428653;0.2716895;0.7112299;0.12834224;0.29411766;0.355879;0.3007991;0.36415526;0.70053476;0.24598931;0.22459893;0.7711187;0.38384703;0.3821347;0.6684492;0.40106952;0.2513369;0.9663242;0.4520548;0.41952056;0.5989305;0.80748665;0.486631;1.0;0.5002854;0.4520548;0.5080214;0.80213904;0.54545456;0.78852737;0.4997146;0.4594749;0.5989305;0.54545456;0.5775401;0.6726598;0.47174656;0.38270548;0.6042781;0.44919786;0.72192514;0.70119864;0.44663242;0.39069635;0.62032086;0.44919786;0.79679143;0.7502854;0.4497717;0.3752854;0.56684494;0.5775401;0.93048126;0.58618724;0.41181508;0.36101598;0.5508021;0.69518715;1.0;0.47174656;0.38099316;0.35216895;0.54545456;0.8181818;0.96791446;0.29908675;0.350742;0.3458904;0.5240642;0.9197861;0.9251337;0.10530822;0.31792238;0.350742;0.5240642;0.9251337;0.8930481;0.06706621;0.29937214;0.3530251;0.5561497;0.87700534;0.72727275;0.20234019;0.32848173;0.36900684;0.56684494;0.78074867;0.64705884;0.28595892;0.34817353;0.38099316
ACW;0.8356164;0.0;0.3607306;0.0;0.2399912;0.2399912;0.7305936;0.27853882;0.29680365;0.19973603;0.24527057;0.28354597;0.74429226;0.2283105;0.34703195;0.40783107;0.2976243;0.291465;0.716895;0.26027396;0.39269406;0.82710075;0.35943687;0.32314122;0.6347032;0.72602737;0.7123288;1.0;0.42190936;0.39551255;0.53881276;0.9086758;0.60273975;0.7091949;0.3948526;0.38605368;0.65296805;0.5525114;0.70776254;0.66454023;0.42608887;0.34711835;0.6484018;0.51598173;0.7123288;0.6234052;0.40387154;0.3442587;0.65753424;0.5479452;0.826484;0.5653322;0.38759348;0.3183018;0.60273975;0.6164383;0.9497717;0.50043994;0.3598768;0.308183;0.5936073;0.80365294;0.96347034;0.38539374;0.33326;0.2901452;0.5707763;0.96347034;0.94520545;0.20611526;0.27738672;0.2925649;0.55707765;1.0;0.94063926;0.098548174;0.25494942;0.2901452;0.57990867;0.9726027;0.8630137;0.107787065;0.25868896;0.3042235;0.60273975;0.9223744;0.716895;0.12450506;0.26990762;0.30092388;0.5981735;0.80365294;0.6849315;0.18895732;0.28024638;0.31808183
ACW;0.88990825;0.0;0.24311927;0.0;0.3077217;0.31651375;0.72477067;0.20183486;0.49082568;0.32779053;0.3300841;0.3780581;0.75688076;0.30733946;0.32110092;0.47477064;0.3816896;0.39220184;0.73394495;0.29816514;0.29357797;0.7371942;0.4375;0.40883029;0.6605505;0.51376146;0.6238532;1.0;0.4938838;0.47859326;0.48165137;0.9495413;0.6788991;0.81441134;0.48776758;0.48203364;0.67431194;0.6788991;0.48623854;0.57511467;0.48509175;0.42029816;0.64220184;0.4678899;0.6834862;0.6070336;0.4678899;0.41227064;0.6559633;0.5;0.79357797;0.6146789;0.4617737;0.40634558;0.6284404;0.54587156;0.8715596;0.5970948;0.45661315;0.39296636;0.6146789;0.6972477;0.9678899;0.5124236;0.4277523;0.39162844;0.5825688;0.79816514;0.9724771;0.43597096;0.40194955;0.404052;0.5733945;0.8853211;0.93119264;0.3375382;0.37844038;0.40214068;0.5642202;1.0;0.8853211;0.2488532;0.35110855;0.3962156;0.58715594;0.98623854;0.79816514;0.24025229;0.35454893;0.3998471;0.60091746;0.88073397;0.7155963;0.3027523;0.3744266;0.3962156
ACW;0.71014494;0.0;0.34299517;0.0;0.16726668;0.20936029;0.68599033;0.19806764;0.24637681;0.34311825;0.23373027;0.255054;0.68115944;0.2415459;0.2173913;0.64580446;0.30711713;0.28357795;0.6183575;0.39613527;0.42512077;1.0;0.36914983;0.33730268;0.5169082;0.9178744;0.5458937;0.9324287;0.4137358;0.38521186;0.5410628;0.77294683;0.44927537;0.5846026;0.36499584;0.32207146;0.5652174;0.46859902;0.589372;0.45444477;0.33370256;0.2866242;0.5845411;0.41545895;0.65217394;0.55884796;0.33979508;0.28856272;0.5797101;0.4299517;0.7198068;0.59651065;0.35031846;0.28025478;0.5603865;0.49758455;0.82608694;0.502077;0.32705623;0.25366935;0.531401;0.6231884;0.884058;0.4120742;0.30379397;0.26086956;0.5169082;0.71497583;0.884058;0.3295486;0.27831626;0.25090003;0.4879227;0.8888889;0.85507244;0.202437;0.24868457;0.22182222;0.4830918;1.0;0.79227054;0.050678484;0.21711437;0.23206867;0.4879227;0.9516908;0.7198068;0.0744946;0.22486846;0.2567156;0.49758455;0.90821254;0.6086956;0.1287732;0.23622265;0.26890057
ACW;0.0;1.0;0.22727273;0.0;0.76704544;1.0;0.09090909;0.45454547;0.20454545;0.33295456;0.81704545;0.9965909;0.18181819;0.38636363;0.11363637;0.5409091;0.8375;0.9670454;0.18181819;0.18181819;0.20454545;0.62954545;0.8568182;0.9045454;0.25;0.11363637;0.25;0.88863635;0.89204544;0.93636364;0.25;0.25;0.29545453;0.8840909;0.9045454;0.93636364;0.25;0.20454545;0.29545453;0.9215909;0.91818184;0.9375;0.25;0.20454545;0.27272728;0.9875;0.9318182;0.9306818;0.25;0.25;0.25;0.9306818;0.9284091;0.9306818;0.25;0.27272728;0.25;0.975;0.9409091;0.93295455;0.25;0.25;0.20454545;0.9159091;0.9352273;0.94204545;0.25;0.27272728;0.25;0.9579545;0.9431818;0.94772726;0.22727273;0.25;0.25;0.92386365;0.93636364;0.9522727;0.25;0.25;0.27272728;0.95681816;0.9397727;0.95454544;0.25;0.22727273;0.25;0.92045456;0.93636364;0.95113635;0.27272728;0.25;0.22727273;0.94772726;0.93636364;0.93863636
ACW;0.8505155;0.0;0.34020618;0.0;0.2651283;0.31080762;0.77835053;0.10309278;0.4226804;0.3524841;0.314575;0.35460326;0.78350514;0.33505154;0.2783505;0.5834707;0.39627972;0.3845067;0.7525773;0.3814433;0.24226804;0.7697198;0.433247;0.41276196;0.67525774;0.57731956;0.5670103;1.0;0.5010596;0.47398165;0.57731956;0.943299;0.57731956;0.8052743;0.50671065;0.45797032;0.66494846;0.742268;0.5463917;0.5792324;0.4824582;0.41676477;0.6546392;0.5515464;0.71649486;0.56581116;0.44431365;0.39839888;0.67525774;0.48453608;0.81958765;0.65010595;0.45867673;0.39557335;0.6494845;0.62886596;0.86082476;0.5851189;0.44549093;0.3875677;0.62886596;0.6030928;1.0;0.5714622;0.42641866;0.39675066;0.61340207;0.7474227;1.0;0.54768074;0.41040733;0.3915705;0.58247423;0.96391755;0.9536083;0.33035085;0.3661408;0.3805039;0.57216495;1.0;0.97938144;0.17023781;0.33152813;0.36825994;0.58762884;0.943299;0.8969072;0.25311986;0.34518483;0.37885568;0.61340207;0.97422683;0.77319586;0.27336943;0.35530964;0.36661172
ACW;0.0;0.8947368;0.31578946;0.0;0.7004219;0.79113925;0.05263158;1.0;0.02631579;0.49367088;0.8037975;0.88185656;0.02631579;0.84210527;0.0;0.25527427;0.778481;0.84388185;0.05263158;0.7368421;0.0;0.10759494;0.74472576;0.8924051;0.13157895;0.21052632;0.13157895;0.43670887;0.8248945;0.9219409;0.18421052;0.28947368;0.078947365;0.4620253;0.8586498;0.9725738;0.15789473;0.21052632;0.13157895;0.6751055;0.8881857;0.9556962;0.18421052;0.10526316;0.21052632;0.8586498;0.9050633;0.9388186;0.18421052;0.13157895;0.21052632;0.84599155;0.9135021;0.93670887;0.21052632;0.15789473;0.18421052;0.8670886;0.9156118;0.9219409;0.15789473;0.10526316;0.21052632;1.0;0.92827004;0.907173;0.18421052;0.13157895;0.18421052;0.9177215;0.9177215;0.9113924;0.18421052;0.2631579;0.15789473;0.88396627;0.9177215;0.9177215;0.18421052;0.13157895;0.18421052;0.98945147;0.9198312;0.9135021;0.15789473;0.18421052;0.18421052;0.93248945;0.9177215;0.907173;0.18421052;0.28947368;0.15789473;0.89662445;0.9092827;0.9198312
ACW;0.7799043;0.0;0.3923445;0.0;0.1568323;0.21376811;0.7368421;0.20574163;0.31578946;0.26190478;0.22567287;0.26552796;0.75598085;0.20095694;0.30622008;0.58514494;0.310559;0.27173913;0.6985646;0.41626793;0.4258373;0.884058;0.38328156;0.2893375;0.5980861;0.8516746;0.7703349;1.0;0.4391822;0.3395445;0.57416266;0.8995215;0.53588516;0.54244304;0.375;0.30719462;0.6172249;0.5980861;0.64593303;0.39906833;0.31754658;0.26578674;0.6411483;0.5215311;0.75119615;0.48680124;0.3087474;0.27458593;0.6555024;0.5215311;0.7799043;0.6162008;0.33695653;0.26785713;0.6172249;0.58373207;0.84689;0.51397514;0.31935817;0.26423395;0.6076555;0.7033493;0.94258374;0.4332298;0.29658386;0.25879917;0.5980861;0.7799043;0.9569378;0.36076605;0.2813147;0.27018633;0.5645933;0.8899522;0.90430623;0.18918219;0.2502588;0.26164597;0.54545456;0.9952153;0.8851675;0.009057971;0.20574534;0.2518116;0.5645933;1.0;0.784689;0.09006211;0.21713251;0.2543996;0.5645933;0.8851675;0.6937799;0.126294;0.22515528;0.25672877
ACW;0.0;1.0;0.20454545;0.0;0.69525063;0.83113456;0.045454547;0.45454547;0.11363637;0.27044854;0.7730871;0.8944591;0.11363637;0.25;0.1590909;0.47229552;0.8073879;0.90897095;0.1590909;0.22727273;0.06818182;0.5646438;0.8469657;0.94327176;0.18181819;0.045454547;0.13636364;0.8271768;0.9010554;0.9340369;0.13636364;0.1590909;0.11363637;0.853562;0.91424805;0.91292876;0.13636364;0.20454545;0.18181819;1.0;0.9195251;0.9010554;0.18181819;0.20454545;0.13636364;0.8271768;0.88918203;0.90897095;0.1590909;0.1590909;0.13636364;0.9656992;0.9076517;0.9036939;0.1590909;0.18181819;0.1590909;0.88258576;0.9010554;0.9023747;0.1590909;0.20454545;0.11363637;0.92348284;0.90633243;0.90633243;0.13636364;0.13636364;0.1590909;0.84168863;0.8984169;0.90633243;0.1590909;0.1590909;0.18181819;0.8944591;0.9050132;0.9036939;0.1590909;0.18181819;0.1590909;0.8852243;0.9010554;0.9036939;0.1590909;0.1590909;0.1590909;0.93007916;0.9023747;0.9023747;0.1590909;0.1590909;0.1590909;0.91688657;0.9010554;0.8944591
ACW;0.61904764;0.0;0.2761905;0.1711242;0.2669991;0.30031732;0.60952383;0.13333334;0.18095239;0.3517679;0.30553037;0.3397552;0.61904764;0.08095238;0.17619048;0.64143246;0.368767;0.3479148;0.552381;0.3;0.36666667;1.0;0.45262918;0.40797824;0.45238096;0.6952381;0.42380953;0.8703536;0.45489573;0.41205803;0.4857143;0.6238095;0.4;0.5713962;0.41953763;0.37941977;0.50476193;0.3809524;0.5857143;0.5290118;0.4007253;0.34202176;0.5095238;0.32380953;0.65238094;0.6223935;0.3887126;0.34428832;0.50476193;0.4;0.6857143;0.7116954;0.40412512;0.34066182;0.45238096;0.66190475;0.68095237;0.6167271;0.3887126;0.33408886;0.43333334;0.9095238;0.8238095;0.36922032;0.33454216;0.3227561;0.42380953;0.8666667;0.8238095;0.24388033;0.32003626;0.31867632;0.40952381;1.0;0.75238097;0.059610154;0.29623753;0.31799638;0.41428572;0.9142857;0.74761903;0.0;0.26903898;0.32003626;0.44761905;0.7285714;0.6904762;0.013599275;0.26722574;0.3229828;0.4857143;0.46666667;0.53809524;0.23889393;0.3139166;0.33748868
ACW;0.75;0.0;0.25877193;0.0;0.31432465;0.34449202;0.68421054;0.17105263;0.3640351;0.33106267;0.35733747;0.38769948;0.69298244;0.19736843;0.2982456;0.45698714;0.3972363;0.38769948;0.68421054;0.21052632;0.32017544;0.7212923;0.44686648;0.40521604;0.6315789;0.5;0.5745614;1.0;0.49221486;0.4414169;0.53070176;0.8684211;0.61403507;0.8135461;0.48287272;0.44978592;0.61403507;0.622807;0.55263156;0.5873881;0.45912805;0.41066563;0.5964912;0.49122807;0.69298244;0.62495136;0.4433632;0.42137018;0.627193;0.4649123;0.75;0.67380303;0.44200078;0.39081356;0.5877193;0.6052632;0.8245614;0.58446866;0.43363178;0.4028805;0.55263156;0.6447368;0.9122807;0.5420397;0.41961852;0.38886726;0.5394737;0.8245614;0.8684211;0.42448422;0.39334372;0.38945115;0.5219298;0.99561405;0.8114035;0.30420396;0.3657065;0.37777346;0.50877196;1.0;0.7894737;0.17029972;0.35247177;0.3945115;0.5131579;0.89912283;0.6885965;0.21409109;0.35636434;0.38400155;0.55701756;0.8815789;0.60087717;0.22576877;0.35947838;0.38769948
ACW;0.6979592;0.0;0.14285715;0.0;0.34224698;0.38792944;0.63265306;0.19183673;0.37142858;0.35506034;0.40408543;0.42209843;0.6612245;0.22857143;0.21632653;0.5162488;0.44698235;0.43992573;0.6612245;0.2122449;0.26938775;0.71327764;0.48467967;0.45032498;0.6;0.4122449;0.4857143;1.0;0.5416899;0.49247912;0.4857143;0.82040817;0.63265306;0.89730734;0.5489322;0.5090065;0.5714286;0.5714286;0.45306122;0.62005574;0.50436395;0.48040855;0.5714286;0.2857143;0.6489796;0.7845868;0.5325905;0.47855154;0.5469388;0.4408163;0.59591836;0.7977716;0.55357474;0.44419685;0.51428574;0.66938776;0.77959186;0.650325;0.5158774;0.47428042;0.4408163;0.71836734;0.8897959;0.53611887;0.4746518;0.44921076;0.44489795;0.7632653;0.86938775;0.41727018;0.45051068;0.43788302;0.40408164;1.0;0.8;0.13017641;0.3799443;0.43082637;0.43265307;0.83265305;0.8489796;0.08690808;0.34763232;0.441597;0.477551;0.6163265;0.66938776;0.24716806;0.38792944;0.4167131;0.5387755;0.59591836;0.55510205;0.33296192;0.4176416;0.43825442
ACW;0.57466066;0.40723982;0.21719457;0.0;0.42459205;0.51376295;0.6968326;0.0;0.13122173;0.07845723;0.43200922;0.47123784;0.6289593;0.018099548;0.21719457;0.36443052;0.47651228;0.48953354;0.6651584;0.1402715;0.16289593;0.51623535;0.51425743;0.50865334;0.6606335;0.054298643;0.2081448;0.7436954;0.5694742;0.5032141;0.5927602;0.3529412;0.4117647;1.0;0.6187572;0.53931105;0.46153846;0.71040726;0.5022625;0.93027854;0.6232075;0.58414376;0.5339367;0.57918555;0.49321267;0.77039725;0.60590076;0.5670018;0.5339367;0.32579187;0.60633487;0.8041866;0.61892205;0.5487061;0.5294118;0.36199096;0.6696833;0.8404483;0.6184276;0.5228284;0.43438914;0.5339367;0.6968326;0.8384704;0.60557115;0.5388166;0.4162896;0.91402715;0.7963801;0.6136476;0.55595845;0.5323883;0.3846154;0.8597285;0.81900454;0.4615131;0.516565;0.5188726;0.36199096;1.0;0.75113124;0.28069887;0.46431515;0.49892864;0.36651585;0.9411765;0.760181;0.20224163;0.44206363;0.52167463;0.45701358;0.7963801;0.7239819;0.21427394;0.4539311;0.50799406