Lable;AccX1;AccY1;AccZ1;GyrX1;GyrY1;GyrZ1;AccX2;AccY2;AccZ2;GyrX2;GyrY2;GyrZ2;AccX3;AccY3;AccZ3;GyrX3;GyrY3;GyrZ3;AccX4;AccY4;AccZ4;GyrX4;GyrY4;GyrZ4;AccX5;AccY5;AccZ5;GyrX5;GyrY5;GyrZ5;AccX6;AccY6;AccZ6;GyrX6;GyrY6;GyrZ6;AccX7;AccY7;AccZ7;GyrX7;GyrY7;GyrZ7;AccX8;AccY8;AccZ8;GyrX8;GyrY8;GyrZ8;AccX9;AccY9;AccZ9;GyrX9;GyrY9;GyrZ9;AccX10;AccY10;AccZ10;GyrX10;GyrY10;GyrZ10;AccX11;AccY11;AccZ11;GyrX11;GyrY11;GyrZ11;AccX12;AccY12;AccZ12;GyrX12;GyrY12;GyrZ12;AccX13;AccY13;AccZ13;GyrX13;GyrY13;GyrZ13;AccX14;AccY14;AccZ14;GyrX14;GyrY14;GyrZ14;AccX15;AccY15;AccZ15;GyrX15;GyrY15;GyrZ15;AccX16;AccY16;AccZ16;GyrX16;GyrY16;GyrZ16;
CW;1.0;0.04411765;0.5735294;0.0;0.41525424;0.42372882;1.0;0.0;0.5735294;0.48728815;0.5042373;0.47033897;1.0;0.04411765;0.5588235;0.34745762;0.47881356;0.45762712;0.7794118;0.7205882;0.7352941;1.0;0.58474576;0.5127119;0.7647059;0.8088235;0.7352941;0.86864406;0.5211864;0.5042373;0.7647059;0.7647059;0.7647059;0.9576271;0.5169492;0.5042373;0.75;0.7941176;0.75;0.41525424;0.42372882;0.47033897;0.7647059;0.7794118;0.7794118;0.55508476;0.4618644;0.47033897;0.75;0.7352941;0.7647059;0.3644068;0.42372882;0.47033897;0.7647059;0.75;0.7647059;0.42372882;0.4618644;0.4279661;0.75;0.75;0.7794118;0.44915253;0.47457626;0.41949153;0.7647059;0.7647059;0.7794118;0.43644068;0.44491526;0.40677965;0.75;0.7647059;0.7794118;0.47033897;0.4279661;0.41101694;0.75;0.7794118;0.7647059;0.45762712;0.41949153;0.42372882;0.7794118;0.7647059;0.7794118;0.47457626;0.44067797;0.42372882;0.7647059;0.7794118;0.75;0.37288135;0.41101694;0.44067797
CW;0.12315271;0.8817734;0.42857143;0.86485535;0.7717008;0.78369796;0.14778325;1.0;0.23152709;0.5197601;0.7724065;0.8295695;0.13300492;0.86206895;0.25123152;0.34615386;0.7395907;0.8316867;0.16748768;0.84729064;0.27586207;0.0;0.63937896;0.8376852;0.25615764;0.51724136;0.42364532;0.13302752;0.73147494;0.89414257;0.29064038;0.19211823;0.20197044;0.7558222;0.88461536;0.87050104;0.25615764;0.12315271;0.32512316;0.796048;0.83556813;0.82851094;0.27586207;0.29064038;0.26600984;0.6330275;0.800988;0.83450955;0.26108375;0.3004926;0.28078818;0.66725475;0.8129852;0.835921;0.2857143;0.14778325;0.37931034;0.60232884;0.79887086;0.8348624;0.29064038;0.13300492;0.36453202;0.5437544;0.7858151;0.8362738;0.3004926;0.0591133;0.408867;0.74100214;0.81686664;0.8330981;0.30541873;0.009852217;0.4187192;0.858151;0.83380383;0.8242766;0.31034482;0.0;0.39901477;0.8662668;0.83662665;0.8278052;0.30541873;0.014778325;0.3448276;1.0;0.85144675;0.82851094;0.27586207;0.12807882;0.2857143;0.9393084;0.84897673;0.82498235
CW;0.1618497;0.9479769;0.36416185;0.9867617;0.99321115;0.9945689;0.15606937;1.0;0.2601156;0.64358455;0.9555329;0.98336726;0.1618497;0.9768786;0.2601156;0.32416835;0.8842498;0.9779362;0.19075145;0.8612717;0.46242774;0.0;0.8190767;0.97420233;0.34104046;0.01734104;0.44508672;0.81296676;0.9646979;0.98642224;0.30057803;0.26589596;0.28323698;0.8876443;0.9745417;0.9843856;0.28901735;0.34104046;0.28323698;0.93448746;0.97623897;0.9830278;0.28323698;0.30635837;0.31791908;0.9677529;0.97623897;0.99185336;0.27745664;0.33526012;0.30057803;0.9324508;0.9667345;0.99490833;0.28901735;0.30057803;0.3236994;0.92837745;0.9711473;0.9976239;0.28901735;0.2716763;0.31213874;0.8723693;0.9646979;0.9976239;0.28901735;0.2716763;0.3468208;0.96571624;0.98540395;0.98472506;0.31791908;0.23121387;0.40462428;0.7742702;0.97691786;0.9867617;0.3236994;0.1734104;0.41618496;0.8496266;0.9962661;0.98710114;0.31213874;0.09248555;0.4566474;0.82959944;0.98133063;0.98710114;0.31791908;0.0;0.49710983;0.954854;1.0;0.98268837
CW;0.8648649;0.08108108;0.972973;0.8432;0.256;0.2528;0.8648649;0.0;1.0;1.0;0.2864;0.2144;0.8918919;0.2837838;0.7837838;0.7744;0.2816;0.2144;0.8648649;0.5135135;0.7027027;0.8192;0.296;0.2608;0.8648649;0.36486486;0.7567568;0.6768;0.2784;0.2336;0.8513514;0.5810811;0.7297297;0.4016;0.2656;0.224;0.8243243;0.5675676;0.6891892;0.0416;0.1776;0.2208;0.8378378;0.527027;0.6621622;0.2464;0.2288;0.216;0.8513514;0.527027;0.6216216;0.0592;0.1952;0.1936;0.8378378;0.6351351;0.5675676;0.1168;0.2112;0.2032;0.8378378;0.5675676;0.5540541;0.0;0.184;0.1808;0.8513514;0.5945946;0.5135135;0.2384;0.2208;0.2208;0.8378378;0.6351351;0.527027;0.3296;0.232;0.224;0.8243243;0.6081081;0.5405405;0.44;0.2416;0.2448;0.8378378;0.6621622;0.5540541;0.4096;0.232;0.2304;0.8243243;0.6621622;0.5945946;0.536;0.2416;0.2512
CW;0.012578616;0.8553459;0.3018868;0.97140557;0.90213454;0.88240033;0.044025157;1.0;0.13207547;0.557793;0.8719291;0.9126057;0.044025157;0.9056604;0.094339624;0.36004832;0.8340717;0.90938383;0.031446543;0.8930818;0.0754717;0.0;0.75151026;0.91743857;0.1572327;0.33333334;0.3773585;0.21949255;0.815143;0.9234797;0.18238993;0.18867925;0.08805031;0.77527183;0.93354815;0.9532823;0.1509434;0.08805031;0.20125785;0.9069674;0.9279098;0.9218687;0.1572327;0.13836478;0.20125785;0.8989126;0.91904956;0.91904956;0.16981132;0.20754717;0.18238993;0.8538059;0.9126057;0.9295207;0.16352202;0.19496855;0.17610063;0.85541683;0.90213454;0.92750704;0.18238993;0.11320755;0.2264151;0.80829644;0.9009263;0.93354815;0.17610063;0.16352202;0.20125785;0.77607733;0.8968989;0.93395084;0.17610063;0.13836478;0.2264151;0.85904145;0.9134112;0.9299235;0.20754717;0.0;0.3144654;0.8944825;0.9279098;0.91904956;0.18238993;0.11320755;0.25157234;0.8687072;0.92549336;0.9162304;0.17610063;0.06918239;0.2893082;1.0;0.9403947;0.9134112
CW;0.18023255;0.3604651;0.2616279;1.0;0.5891232;0.5127636;0.075581394;1.0;0.21511628;0.5329634;0.5123196;0.48967814;0.058139537;0.9011628;0.24418604;0.3227525;0.4519423;0.47857934;0.15116279;0.71511626;0.16860466;0.47302997;0.48479468;0.4899001;0.08139535;0.89534885;0.0;0.22153163;0.4608213;0.48967814;0.11046512;0.71511626;0.24418604;0.0;0.40643728;0.48213097;0.19767442;0.13953489;0.25581396;0.3145394;0.47125417;0.500111;0.23837209;0.14534883;0.19767442;0.41043285;0.50499445;0.50854605;0.18604651;0.13953489;0.21511628;0.49367368;0.5047725;0.4963374;0.20348836;0.26744187;0.18604651;0.47125417;0.49322975;0.49411765;0.22093023;0.20930232;0.19767442;0.50033295;0.5005549;0.4954495;0.20930232;0.21511628;0.18023255;0.4934517;0.4925638;0.49433962;0.20348836;0.22093023;0.19186047;0.48146504;0.49189788;0.49522752;0.20348836;0.21511628;0.20348836;0.46881244;0.49012208;0.49988902;0.19767442;0.18604651;0.22674419;0.46792454;0.4863485;0.5012209;0.20348836;0.2616279;0.24418604;0.4170921;0.47569367;0.50566036
CW;0.71794873;0.08974359;0.98717946;0.91767883;0.28070176;0.12550607;0.71794873;0.0;1.0;1.0;0.2874494;0.1417004;0.71794873;0.2820513;0.8333333;0.64777327;0.19163293;0.16464238;0.7307692;0.26923078;0.65384614;0.537112;0.1902834;0.1754386;0.7307692;0.37179488;0.61538464;0.6059379;0.19838056;0.19433199;0.71794873;0.5769231;0.5897436;0.24021593;0.16194332;0.21052632;0.7307692;0.43589744;0.5769231;0.24966262;0.17004049;0.18893388;0.7307692;0.44871795;0.6025641;0.46963564;0.2240216;0.19298245;0.7051282;0.6282051;0.5897436;0.17948718;0.18893388;0.17408907;0.71794873;0.53846157;0.5897436;0.0;0.15924427;0.17004049;0.7307692;0.43589744;0.5897436;0.14304993;0.17273954;0.18623482;0.71794873;0.47435898;0.55128205;0.08636977;0.17273954;0.1565452;0.71794873;0.47435898;0.55128205;0.27260458;0.18353577;0.17678812;0.71794873;0.51282054;0.55128205;0.34952766;0.19568151;0.1848853;0.6923077;0.6282051;0.5769231;0.52361673;0.22267206;0.17273954;0.67948717;0.5897436;0.64102566;0.40350878;0.20107962;0.16734143
CW;0.0;0.92715234;0.29139072;1.0;0.9168333;0.8860456;0.03311258;0.9735099;0.23178808;0.56577367;0.9048381;0.8860456;0.01986755;1.0;0.26490065;0.13154738;0.8084766;0.85085964;0.052980132;0.8874172;0.09933775;0.0;0.7469012;0.8732507;0.16556291;0.09271523;0.56953645;0.1207517;0.8112755;0.8884446;0.205298;0.11258278;0.12582782;0.8160736;0.902439;0.91163534;0.15231788;0.23178808;0.08609272;0.9008397;0.89164335;0.8812475;0.17218544;0.21192053;0.11258278;0.84886044;0.88284683;0.88164735;0.17218544;0.19205298;0.13907285;0.83486605;0.8784486;0.8920432;0.15231788;0.23178808;0.12582782;0.83286685;0.8780488;0.8952419;0.1589404;0.21854305;0.17880794;0.8272691;0.8832467;0.9004398;0.1589404;0.12582782;0.21192053;0.88364655;0.88164735;0.9004398;0.1589404;0.13245033;0.21854305;0.8844462;0.882447;0.90563774;0.1589404;0.19205298;0.1986755;0.822471;0.8780488;0.90363854;0.17880794;0.11258278;0.25165564;0.73610556;0.8732507;0.9028389;0.17880794;0.01986755;0.29139072;0.65533787;0.86765295;0.88164735
CW;0.012903226;0.9870968;0.21935484;1.0;0.83768326;0.7972828;0.045161292;0.9612903;0.27096775;0.6717912;0.79370755;0.79549515;0.025806451;1.0;0.16129032;0.20808008;0.72434753;0.79549515;0.045161292;0.7741935;0.2;0.0;0.6632106;0.7761888;0.12903225;0.33548388;0.08387097;0.33893457;0.6732213;0.779049;0.21935484;0.051612902;0.2;0.63139075;0.779049;0.80765104;0.12903225;0.33548388;0.012903226;0.70003575;0.79549515;0.8122989;0.16774194;0.22580644;0.09677419;0.7776189;0.8015731;0.80371827;0.16774194;0.17419355;0.13548388;0.75938505;0.7929925;0.8005005;0.17419355;0.2;0.14838709;0.7164819;0.7786915;0.8040758;0.16774194;0.18709677;0.17419355;0.72613513;0.7651055;0.7997855;0.20645161;0.0;0.27096775;0.8012156;0.78369683;0.79120487;0.18709677;0.12903225;0.21935484;0.79227746;0.7879871;0.7929925;0.18064517;0.15483871;0.22580644;0.78405434;0.7869145;0.79335004;0.18064517;0.2;0.20645161;0.7425813;0.785842;0.8022882;0.18064517;0.16774194;0.21935484;0.6896675;0.7904898;0.80371827
CW;0.74444443;0.22222222;1.0;0.0;0.26868686;0.21212122;0.75555557;0.0;0.9777778;0.8484849;0.34343433;0.1979798;0.74444443;0.17777778;0.76666665;0.9959596;0.31919193;0.24040404;0.74444443;0.2888889;0.65555555;0.610101;0.37777779;0.3070707;0.74444443;0.18888889;0.6111111;0.8242424;0.37777779;0.3131313;0.76666665;0.23333333;0.64444447;1.0;0.4040404;0.3090909;0.74444443;0.41111112;0.56666666;0.74343437;0.37171718;0.31919193;0.7222222;0.4888889;0.56666666;0.8484849;0.35959595;0.31919193;0.74444443;0.42222223;0.62222224;0.8949495;0.33535352;0.27272728;0.73333335;0.6888889;0.5555556;0.44848484;0.3090909;0.26060605;0.73333335;0.5777778;0.6;0.40202022;0.3030303;0.28282827;0.7222222;0.62222224;0.5888889;0.10707071;0.27474746;0.2868687;0.73333335;0.6111111;0.56666666;0.15555556;0.2929293;0.3090909;0.7;0.62222224;0.56666666;0.34343433;0.33737373;0.34949496;0.6333333;0.53333336;0.6333333;0.5070707;0.34343433;0.35959595;0.6;0.6333333;0.6111111;0.4888889;0.3090909;0.2949495
CW;0.17877094;0.9497207;0.5083799;0.74885464;0.86422324;0.846314;0.2122905;0.96089387;0.40223464;0.455227;0.8525614;0.880883;0.19553073;1.0;0.34078214;0.0787172;0.7938359;0.8354852;0.26256984;0.7877095;0.41899443;0.0;0.7201166;0.8483965;0.31284916;0.2793296;0.44134077;0.46813828;0.82590586;0.87546855;0.32960895;0.39106146;0.26815644;0.7680133;0.89879215;0.9196168;0.30726257;0.32402235;0.33519554;0.86797166;0.88171595;0.89379424;0.32960895;0.2905028;0.3463687;0.85297793;0.8733861;0.8967097;0.32402235;0.36871508;0.29608938;0.79883385;0.86463976;0.907122;0.34078214;0.26815644;0.3575419;0.81965846;0.87296957;0.89879215;0.32960895;0.32960895;0.33519554;0.66389006;0.84798;0.8946272;0.34078214;0.26256984;0.39664805;0.77134526;0.8688047;0.8825489;0.3519553;0.20670392;0.40782124;0.60308206;0.85339445;0.88005;0.37430167;0.13407822;0.45251396;0.78883797;0.8912953;0.8796335;0.36312848;0.12849163;0.44134077;0.82215744;0.9058725;0.88046646;0.3519553;0.0;0.49162012;1.0;0.93127865;0.8837984
CW;0.13612565;1.0;0.34554973;1.0;0.8459203;0.8398482;0.14659686;0.9790576;0.28795812;0.36850095;0.8049336;0.827704;0.15183246;0.93193716;0.35602096;0.0;0.711575;0.8132827;0.19371727;0.5968586;0.30890054;0.15104364;0.71119547;0.8049336;0.22513089;0.32984293;0.2460733;0.39165086;0.7749526;0.8239089;0.2670157;0.07853403;0.30890054;0.65047437;0.85426944;0.84705883;0.2303665;0.2356021;0.2722513;0.84933585;0.84705883;0.84288424;0.2408377;0.27748692;0.2722513;0.7297913;0.8296015;0.84819734;0.2722513;0.17801048;0.32460734;0.59848195;0.8159393;0.84895635;0.2670157;0.10471204;0.35602096;0.71081597;0.82125235;0.83795065;0.2670157;0.18324608;0.34031415;0.7886148;0.82694495;0.8349146;0.2670157;0.12565444;0.37696335;0.78064513;0.829222;0.83036053;0.28795812;0.041884817;0.37696335;0.7643264;0.84250474;0.83605313;0.2827225;0.09424084;0.32460734;0.87134725;0.86034155;0.85502845;0.2722513;0.083769634;0.28795812;0.85047436;0.86148006;0.85920304;0.28795812;0.0;0.28795812;0.8068311;0.85920304;0.86489564
CW;0.26136363;1.0;0.3465909;0.5862797;0.75356203;0.73931396;0.29545453;0.89204544;0.30113637;0.55672824;0.7831135;0.76042217;0.30113637;0.8125;0.26704547;0.32717678;0.7503958;0.77097625;0.2840909;0.73295456;0.24431819;0.14775726;0.6997361;0.8216359;0.3693182;0.60227275;0.42045453;0.0;0.71029025;0.77941954;0.375;0.3125;0.36363637;0.67598945;0.81530344;0.8290237;0.3693182;0.35227272;0.3693182;0.6923483;0.7899736;0.8058047;0.35227272;0.38636363;0.36363637;0.6955145;0.77097625;0.80369395;0.36363637;0.38636363;0.3806818;0.646438;0.75989443;0.80791557;0.375;0.32386363;0.42045453;0.55672824;0.7440633;0.80263853;0.39204547;0.28977272;0.42045453;0.3060686;0.7197889;0.78205806;0.38636363;0.22727273;0.4943182;0.46332455;0.73509234;0.7519789;0.42045453;0.08522727;0.53409094;0.51503956;0.7424802;0.7403694;0.4318182;0.08522727;0.4943182;0.61002636;0.776781;0.75356203;0.42613637;0.0;0.4943182;0.7773087;0.808971;0.771504;0.42045453;0.0056818184;0.4375;1.0;0.82849604;0.80105543
CW;0.94545454;0.0;0.6181818;1.0;0.30637255;0.32352942;0.96363634;0.054545455;0.6;0.6642157;0.16666667;0.20343137;0.90909094;0.45454547;0.3272727;0.29656863;0.063725494;0.1740196;0.94545454;0.21818182;0.47272727;0.6127451;0.125;0.1495098;0.92727274;0.47272727;0.38181818;0.6789216;0.12745099;0.13235295;0.92727274;0.72727275;0.43636364;0.46078432;0.09313726;0.05147059;0.8909091;0.6181818;0.47272727;0.43137255;0.1004902;0.04656863;0.90909094;0.6181818;0.6181818;0.7794118;0.16421568;0.05882353;0.8545455;1.0;0.6181818;0.8063725;0.19607843;0.05882353;0.8727273;0.8181818;0.7090909;0.31617647;0.11029412;0.0;0.8727273;0.8909091;0.74545455;0.33333334;0.11519608;0.080882356;0.8545455;0.90909094;0.7818182;0.53431374;0.16911764;0.15686275;0.8545455;0.92727274;0.8;0.23529412;0.12745099;0.10784314;0.8545455;0.8545455;0.8545455;0.036764707;0.063725494;0.0882353;0.8545455;0.8363636;0.8545455;0.125;0.05882353;0.09313726;0.8727273;0.8363636;0.8545455;0.080882356;0.066176474;0.068627454
CW;0.19117647;0.5588235;0.5294118;1.0;0.8842645;0.9087799;0.11029412;1.0;0.15441176;0.9874572;0.8665907;0.8323831;0.14705883;0.8897059;0.27941176;0.327252;0.75712657;0.7805017;0.16176471;0.9117647;0.15441176;0.0;0.68985176;0.79304445;0.21323529;0.33088234;0.15441176;0.4709236;0.75199544;0.809008;0.18382353;0.6764706;0.0;0.5513113;0.7867731;0.7690992;0.2647059;0.30147058;0.31617647;0.3004561;0.7673888;0.8369441;0.25735295;0.38235295;0.16176471;0.6117446;0.81813;0.8768529;0.25;0.09558824;0.32352942;0.76111746;0.83067274;0.8329533;0.29411766;0.1764706;0.36764705;0.7736602;0.8255416;0.7964652;0.27941176;0.2720588;0.31617647;0.7822121;0.82326114;0.83922464;0.25735295;0.25735295;0.32352942;0.83979475;0.8289624;0.8346636;0.2720588;0.20588236;0.34558824;0.79304445;0.82839227;0.8386545;0.2720588;0.2720588;0.29411766;0.8340935;0.8420752;0.84891677;0.2647059;0.29411766;0.25735295;0.6231471;0.82383126;0.85632837;0.2647059;0.09558824;0.3602941;0.6927024;0.8323831;0.845496
CW;0.9464286;0.23214285;0.91071427;0.028199567;0.1626898;0.09110629;0.91071427;0.0;0.83928573;0.35791758;0.22993493;0.07158352;0.9464286;0.10714286;0.71428573;0.13015184;0.18221258;0.0;0.96428573;0.17857143;0.5714286;0.2516269;0.22125813;0.00867679;1.0;0.25;0.42857143;0.4924078;0.1735358;0.18438178;1.0;0.23214285;0.48214287;0.61605203;0.164859;0.27765727;1.0;0.39285713;0.4642857;0.8373102;0.15618221;0.318872;0.9285714;0.51785713;0.53571427;1.0;0.16052061;0.3362256;0.91071427;0.6785714;0.5535714;0.7418655;0.112798266;0.36442515;0.83928573;0.73214287;0.625;0.4143167;0.15401301;0.19522777;0.85714287;0.75;0.625;0.43600866;0.17570499;0.10412148;0.83928573;0.83928573;0.64285713;0.34056398;0.21258135;0.11930586;0.875;0.75;0.6964286;0.42299348;0.22125813;0.14099783;0.85714287;0.875;0.75;0.46854663;0.23644252;0.14099783;0.85714287;0.8214286;0.8035714;0.39696312;0.22125813;0.14750542;0.83928573;0.875;0.8214286;0.29067245;0.20173536;0.14533623
CW;0.086666666;0.87333333;0.27333334;1.0;0.9472284;0.9046563;0.08;1.0;0.12;0.72815967;0.8962306;0.8957871;0.06;0.88666666;0.12;0.47050998;0.8509978;0.9374723;0.1;0.91333336;0.15333334;0.0;0.772949;0.8851441;0.14;0.26;0.22666667;0.35299334;0.7991131;0.93569845;0.2;0.26;0.13333334;0.735255;0.87849224;0.93037695;0.18666667;0.15333334;0.23333333;0.7968958;0.9015521;0.9370288;0.23333333;0.20666666;0.22666667;0.8292683;0.9033259;0.87716186;0.21333334;0.20666666;0.21333334;0.8727273;0.9095344;0.92195123;0.22;0.10666667;0.26666668;0.9179601;0.9126386;0.9095344;0.22;0.22;0.22666667;0.89002216;0.91219515;0.91219515;0.21333334;0.22;0.22666667;0.87716186;0.90909094;0.9170732;0.21333334;0.19333333;0.24666667;0.9055432;0.9179601;0.9241685;0.20666666;0.24;0.2;0.6545454;0.8873614;0.92949003;0.19333333;0.14;0.29333332;0.724612;0.87849224;0.9392461;0.23333333;0.0;0.30666667;0.51086473;0.859867;0.91529936
CW;0.83495146;0.2038835;1.0;0.14445134;0.34221947;0.35585865;0.83495146;0.097087376;0.98058254;0.2417855;0.35399875;0.32920024;0.9126214;0.0776699;0.6796116;0.0;0.34593925;0.28642282;0.8640777;0.0;0.61165047;0.5300682;0.3868568;0.33911964;0.8446602;0.1553398;0.3883495;0.43769374;0.36019838;0.35771853;0.8543689;0.2524272;0.3106796;0.533168;0.3769374;0.3818971;0.83495146;0.30097088;0.34951457;0.87104774;0.4234346;0.40793553;0.776699;0.5533981;0.4563107;1.0;0.4451333;0.4383137;0.776699;0.7378641;0.5533981;0.8536888;0.44575325;0.4116553;0.74757284;0.8543689;0.66019416;0.73031616;0.43769374;0.39057657;0.7281553;0.8252427;0.6893204;0.49535027;0.40235585;0.37259763;0.74757284;0.7669903;0.74757284;0.40235585;0.38313702;0.36205828;0.7378641;0.776699;0.7669903;0.39367637;0.38313702;0.36887786;0.74757284;0.74757284;0.7669903;0.36515808;0.37445754;0.3682579;0.7378641;0.75728154;0.75728154;0.3564786;0.3732176;0.3732176;0.75728154;0.7281553;0.7669903;0.37383756;0.3719777;0.37073776
CW;0.23904383;0.76494026;0.39442232;0.9852187;0.95686275;0.95173454;0.27091634;0.7171315;0.39043826;0.8325792;0.94147813;0.94811463;0.26294822;0.8366534;0.28286853;0.5963801;0.9146305;0.9544495;0.23505977;1.0;0.41434264;0.0;0.7963801;0.95535445;0.39043826;0.17131475;0.47011954;0.8485671;0.9393665;0.95897436;0.38247013;0.37848607;0.3426295;0.76651585;0.93031675;0.9653092;0.35458168;0.3984064;0.32270917;0.85580695;0.9330317;0.97315234;0.36653388;0.30677292;0.374502;0.83951735;0.92880845;0.9674208;0.3625498;0.3306773;0.39442232;0.7755656;0.92518854;0.97073907;0.3864542;0.21513945;0.4302789;0.6687783;0.91553545;0.9544495;0.3864542;0.18326694;0.43426296;0.75022626;0.9285068;0.95022625;0.3984064;0.10358566;0.47011954;0.82262444;0.94419307;0.94358975;0.39442232;0.1434263;0.41434264;0.84313726;0.9514329;0.9363499;0.41035858;0.0;0.39043826;0.906184;0.96349925;0.933635;0.39043826;0.07569721;0.29482073;0.99607843;0.9622926;0.9306184;0.39442232;0.107569724;0.25099602;1.0;0.95987934;0.93604827
CW;0.15463917;0.8556701;0.3556701;1.0;0.9494655;0.94525427;0.17010309;0.9381443;0.31958762;0.6611597;0.9112407;0.9280855;0.16494845;1.0;0.26288658;0.25332037;0.8432135;0.88921285;0.22680412;0.8402062;0.5670103;0.0;0.79170716;0.845805;0.34536082;0.05154639;0.3814433;0.71979266;0.925494;0.9510852;0.34536082;0.31443298;0.33505154;0.81341106;0.9222546;0.93262064;0.32474226;0.31958762;0.32474226;0.9057337;0.92938125;0.93974733;0.30927834;0.33505154;0.3041237;0.8551992;0.92776155;0.94849366;0.3041237;0.29896906;0.3298969;0.7852284;0.9138322;0.94590217;0.31958762;0.18041237;0.38659793;0.7408487;0.91318434;0.93909943;0.33505154;0.17010309;0.41237113;0.7787496;0.9313249;0.9378037;0.32474226;0.12371134;0.4484536;0.80919987;0.9352122;0.9329446;0.35051546;0.010309278;0.4742268;0.8558471;0.9403952;0.925494;0.34020618;0.030927835;0.4226804;0.88694525;0.9527049;0.9271137;0.34020618;0.067010306;0.36597937;0.93002915;0.9591837;0.92840946;0.3298969;0.0;0.21649484;0.77421445;0.9420149;0.89569163
CW;0.9518072;0.0;0.3493976;0.21768707;0.031098153;0.022351798;0.9518072;0.19277108;0.3253012;0.55296403;0.04373178;0.077745385;0.91566265;0.38554215;0.28915662;0.6132167;0.033041786;0.10301264;0.90361446;0.60240966;0.5180723;1.0;0.04956268;0.19825073;0.8433735;0.8192771;0.6626506;0.8649174;0.09718173;0.14965986;0.8072289;1.0;0.6626506;0.44120505;0.07482993;0.085519925;0.79518074;0.8433735;0.7590361;0.20505345;0.06899903;0.04567541;0.79518074;0.8192771;0.8072289;0.113702625;0.06511176;0.024295432;0.8072289;0.8433735;0.8433735;0.093294464;0.07385811;0.03206997;0.8072289;0.8072289;0.8433735;0.042759962;0.06316812;0.023323616;0.8072289;0.8313253;0.8433735;0.0;0.05344995;0.019436346;0.8192771;0.8192771;0.85542166;0.011661808;0.044703595;0.016520893;0.8192771;0.8192771;0.8313253;0.022351798;0.041788142;0.028182702;0.8313253;0.8313253;0.8313253;0.037900876;0.033041786;0.029154519;0.8313253;0.8192771;0.8433735;0.026239067;0.031098153;0.033041786;0.8192771;0.8192771;0.8313253;0.04373178;0.03595724;0.03206997
CW;0.3196347;0.99086756;0.44292238;0.7694863;0.7705086;0.7687197;0.3561644;0.8310502;0.48401827;0.69435215;0.76744187;0.76488626;0.3196347;1.0;0.369863;0.3994378;0.73370814;0.7390749;0.30593607;1.0;0.6849315;0.0;0.6514183;0.69562995;0.43835616;0.1780822;0.4155251;0.7694863;0.75594175;0.76335293;0.4063927;0.3196347;0.42922375;0.7119857;0.75721955;0.77459747;0.38812786;0.4885845;0.3607306;0.6399182;0.739586;0.77689755;0.4155251;0.40182647;0.41095892;0.61538464;0.7388193;0.77178633;0.4520548;0.3242009;0.46575344;0.56299514;0.74546385;0.76539737;0.4520548;0.27853882;0.48401827;0.5566062;0.75721955;0.76130843;0.4520548;0.18721461;0.47488585;0.5198058;0.75210834;0.7523639;0.47031963;0.0;0.46575344;0.5890621;0.76130843;0.74469715;0.4611872;0.00913242;0.40182647;0.7181191;0.78277534;0.75261945;0.44748858;0.03652968;0.34246576;0.82289803;0.787631;0.75491947;0.47488585;0.08219178;0.28767124;0.87375414;0.78507537;0.76744187;0.4977169;0.14155251;0.28310502;1.0;0.807309;0.7909532