Lable;AccX1;AccY1;AccZ1;GyrX1;GyrY1;GyrZ1;AccX2;AccY2;AccZ2;GyrX2;GyrY2;GyrZ2;AccX3;AccY3;AccZ3;GyrX3;GyrY3;GyrZ3;AccX4;AccY4;AccZ4;GyrX4;GyrY4;GyrZ4;AccX5;AccY5;AccZ5;GyrX5;GyrY5;GyrZ5;AccX6;AccY6;AccZ6;GyrX6;GyrY6;GyrZ6;AccX7;AccY7;AccZ7;GyrX7;GyrY7;GyrZ7;AccX8;AccY8;AccZ8;GyrX8;GyrY8;GyrZ8;AccX9;AccY9;AccZ9;GyrX9;GyrY9;GyrZ9;AccX10;AccY10;AccZ10;GyrX10;GyrY10;GyrZ10;AccX11;AccY11;AccZ11;GyrX11;GyrY11;GyrZ11;AccX12;AccY12;AccZ12;GyrX12;GyrY12;GyrZ12;AccX13;AccY13;AccZ13;GyrX13;GyrY13;GyrZ13;AccX14;AccY14;AccZ14;GyrX14;GyrY14;GyrZ14;AccX15;AccY15;AccZ15;GyrX15;GyrY15;GyrZ15;AccX16;AccY16;AccZ16;GyrX16;GyrY16;GyrZ16;
LEFT;0.18709677;0.9483871;0.09677419;0.4181919;0.49195784;0.5335552;0.12258065;1.0;0.025806451;0.27287853;0.6849695;0.74819744;0.16129032;0.8451613;0.058064517;0.1619523;0.80698836;0.9184692;0.19354838;0.61935484;0.14838709;0.21963394;0.9556295;0.9961176;0.18064517;0.4516129;0.31612903;0.21686079;1.0;0.9822518;0.13548388;0.090322584;0.46451613;0.20743206;0.8580144;0.8790904;0.22580644;0.012903226;0.59354836;0.348863;0.60288405;0.61064893;0.42580646;0.0;0.716129;0.41430947;0.38047698;0.34553522;0.47096774;0.13548388;0.61290324;0.26788685;0.13810316;0.17359956;0.59354836;0.13548388;0.59354836;0.33887964;0.0338325;0.09151414;0.63225806;0.22580644;0.52903223;0.4714365;0.0;0.026067665;0.6516129;0.28387097;0.41935483;0.43871325;0.018302828;0.10094287;0.38709676;0.4;0.30967742;0.49084857;0.1386578;0.21575153;0.42580646;0.4;0.29032257;0.54132;0.2651137;0.327787;0.47741935;0.4516129;0.23870967;0.4608985;0.3471991;0.41098168;0.38709676;0.4516129;0.2516129;0.3810316;0.42817527;0.47975597
LEFT;0.10559006;0.5217391;0.29813665;0.49567366;0.98599094;0.79151213;0.049689442;0.3167702;0.54658383;0.3798929;1.0;0.80057687;0.13664596;0.0;0.68944097;0.21631645;0.684384;0.6868562;0.41614908;0.024844721;0.7515528;0.24227442;0.41120726;0.50473833;0.63975155;0.024844721;0.7763975;0.23856613;0.20107128;0.3893696;0.76397514;0.26086956;0.65217394;0.30449113;0.031726412;0.289658;0.88819873;0.14285715;0.68944097;0.5776679;0.0;0.21096003;1.0;0.45341614;0.55279505;0.6229913;0.15986815;0.22002472;0.7453416;0.5341615;0.5031056;0.65842605;0.29789865;0.3341574;0.63975155;0.59006214;0.46583852;0.6596621;0.41985992;0.40379068;0.57763976;0.39130434;0.48447204;0.6328801;0.5059745;0.473424;0.6086956;0.51552796;0.3043478;0.51133084;0.5249279;0.4960857;0.4409938;0.4037267;0.41614908;0.6028018;0.5554182;0.5092707;0.46583852;0.41614908;0.44720498;0.5236918;0.52657604;0.4894932;0.44720498;0.4099379;0.45341614;0.54511744;0.51380306;0.48207664;0.47826087;0.39130434;0.47204968;0.5232798;0.49649772;0.4680676
LEFT;0.23602484;0.757764;0.39751554;0.38617402;1.0;0.95411205;0.27329192;0.72670805;0.42236024;0.36233613;0.966031;0.98033375;0.32298136;0.55279505;0.5590062;0.4010727;0.9523242;1.0;0.25465837;0.27329192;0.72670805;0.2580453;0.72765195;0.86889154;0.39130434;0.0;0.8509317;0.25983313;0.37306318;0.5363528;0.6956522;0.26708075;0.7204969;0.23539929;0.1954708;0.30393326;0.8136646;0.099378884;0.8819876;0.4034565;0.12395709;0.20023838;0.9254658;0.27329192;0.7453416;0.30274135;0.0;0.15137067;1.0;0.29192546;0.67701864;0.4147795;0.047079857;0.19725864;0.9006211;0.5031056;0.621118;0.6460072;0.20321812;0.2717521;0.8198758;0.39130434;0.70186335;0.738975;0.32419547;0.33551848;0.73913044;0.5838509;0.50931674;0.6728248;0.38200238;0.38617402;0.66459626;0.48447204;0.5217391;0.71454114;0.44815257;0.41418356;0.59006214;0.5652174;0.54037267;0.6722289;0.5238379;0.4034565;0.66459626;0.5279503;0.49068323;0.50595945;0.5220501;0.4046484;0.60248446;0.54658383;0.48447204;0.5750894;0.5512515;0.43027413
LEFT;0.36090225;0.88721806;0.45112783;0.39801773;0.45696402;0.523735;0.31578946;0.9699248;0.45864663;0.32603025;0.39958268;0.5279082;0.35338345;0.87969923;0.46616542;0.35367763;0.39488783;0.5586854;0.33082706;0.94736844;0.24812031;0.33385497;0.48826292;0.6567553;0.21804512;0.8947368;0.24812031;0.4246218;0.685446;0.7934272;0.09774436;0.7894737;0.16541353;0.40114763;0.8325509;0.89462703;0.11278196;0.7368421;0.067669176;0.3933229;0.9040167;0.943662;0.10526316;0.48120302;0.32330826;0.41627544;1.0;0.9838289;0.0;0.2857143;0.48872182;0.2597809;0.9744392;0.90558165;0.05263158;0.2631579;0.56390977;0.17944705;0.71935314;0.76212835;0.48120302;0.12781955;0.7593985;0.34220135;0.48774126;0.5633803;0.6315789;0.007518797;0.96240604;0.36619717;0.3437663;0.4105373;0.69924814;0.2556391;0.7819549;0.35211268;0.12467397;0.2535211;0.94736844;0.05263158;0.8947368;0.49713093;0.0;0.16953573;1.0;0.36842105;0.6466165;0.5279082;0.03651539;0.11476265;0.81954885;0.36842105;0.5864662;0.46426708;0.1304121;0.18153365
LEFT;0.13636364;0.97159094;0.24431819;0.4849438;0.6202247;0.62382025;0.028409092;1.0;0.14772727;0.33348316;0.6966292;0.80764043;0.011363637;0.92045456;0.1534091;0.29303372;0.8116854;0.9833708;0.056818184;0.60227275;0.25;0.21078652;0.86876404;1.0;0.1875;0.3693182;0.48863637;0.16044945;0.80089885;0.9011236;0.29545453;0.23295455;0.6193182;0.09662921;0.6044944;0.7186517;0.5568182;0.2215909;0.64204544;0.16853933;0.4139326;0.49213484;0.64204544;0.0;0.875;0.36269662;0.2058427;0.2588764;0.73295456;0.32386363;0.73295456;0.3141573;0.03505618;0.1469663;0.7613636;0.3181818;0.58522725;0.44898877;0.0;0.11460674;0.77840906;0.3693182;0.59090906;0.5716854;0.08089887;0.12674157;0.6875;0.38636363;0.60227275;0.48;0.14741573;0.19011235;0.59090906;0.65340906;0.3068182;0.37842697;0.21438202;0.28853932;0.5625;0.4375;0.4375;0.46831462;0.33213484;0.36719102;0.60227275;0.4034091;0.41477272;0.3235955;0.3797753;0.4022472;0.53977275;0.4318182;0.35227272;0.36629215;0.40898877;0.42561796
LEFT;0.39130434;0.8913044;0.38586956;0.57967913;0.65935826;0.8171123;0.35869566;0.92391306;0.36956522;0.43743315;0.757754;0.8459893;0.3152174;0.9293478;0.33695653;0.30855614;0.81122994;0.93048126;0.25;0.8152174;0.38043478;0.12032086;0.81390375;1.0;0.29347825;0.7336956;0.4076087;0.21336898;0.79946524;0.973262;0.375;0.48913044;0.65217394;0.3395722;0.78770053;0.9609626;0.3478261;0.51086956;0.6576087;0.0;0.6363636;0.8839572;0.5054348;0.0;0.8097826;0.3379679;0.4299465;0.702139;0.7119565;0.27173913;0.8097826;0.72459894;0.35080215;0.34385026;0.7880435;0.1521739;0.86413044;0.3631016;0.22459893;0.14919786;0.92391306;0.35326087;0.6576087;0.36898395;0.17058824;0.069518715;1.0;0.2228261;0.67391306;0.786631;0.23101604;0.07967915;0.88586956;0.59782606;0.54347825;0.46042782;0.40160426;0.09358289;0.76086956;0.38586956;0.57608694;0.33636364;0.51336896;0.31122994;0.7173913;0.42391303;0.57608694;0.6946524;0.6315508;0.46256685;0.61413044;0.5;0.54347825;0.53208554;0.6128342;0.49358287
LEFT;0.184;0.624;0.176;0.8985591;0.0;0.66801155;0.384;0.672;0.0;0.37925074;0.1925072;0.57636887;0.632;0.64;0.024;0.17348704;0.5072046;0.40230548;0.872;0.584;0.184;0.23573487;0.75677234;0.30605188;0.992;0.624;0.432;0.24092218;0.9112392;0.27896252;1.0;0.616;0.464;0.29971182;1.0;0.318732;0.88;0.616;0.576;0.4282421;0.88645536;0.35619596;0.728;0.704;0.68;0.5319885;0.80864555;0.44380403;0.64;0.712;0.696;0.48414984;0.80518734;0.50259364;0.576;0.672;0.712;0.4610951;0.7884726;0.55446684;0.488;0.6;0.704;0.3850144;0.7181556;0.5976945;0.456;0.512;0.752;0.4576369;0.7002882;0.62536025;0.408;0.48;0.752;0.38616714;0.6426513;0.6334294;0.344;0.456;0.6;0.3429395;0.59884727;0.61556196;0.384;0.352;0.704;0.42132565;0.56023055;0.6017291;0.288;0.4;0.664;0.562536;0.57060516;0.58386165
LEFT;0.625;0.4276316;0.0;0.029808775;0.31664792;0.29865018;0.7565789;0.49342105;0.1513158;0.11811024;0.6422947;0.03824522;0.94078946;0.59210527;0.23684211;0.3768279;0.9071991;0.0;1.0;0.6381579;0.55263156;0.46287963;1.0;0.13217098;0.7763158;0.6315789;0.55921054;0.43025872;0.85883015;0.24296963;0.70394737;0.6381579;0.625;0.52980876;0.74915636;0.31327334;0.57894737;0.65789473;0.6184211;0.5281215;0.6670416;0.42350957;0.57894737;0.59210527;0.6184211;0.3616423;0.5928009;0.4471316;0.53289473;0.5197368;0.6644737;0.5005624;0.6248594;0.42182228;0.48026314;0.57894737;0.6447368;0.47187853;0.61417323;0.4105737;0.46052632;0.5263158;0.6315789;0.5573678;0.67210346;0.40438694;0.4276316;0.6052632;0.5986842;0.53543305;0.7176603;0.38526434;0.44078946;0.6447368;0.65789473;0.44994375;0.65635544;0.39482564;0.3881579;0.6052632;0.65789473;0.24521935;0.5888639;0.47862768;0.3881579;0.7105263;0.6052632;0.10911136;0.5399325;0.5849269;0.3223684;0.47368422;0.7105263;0.12542182;0.38920134;0.68110234
LEFT;0.10619469;0.044247787;0.32743362;0.73463684;0.28142458;0.45251396;0.14159292;0.0;0.38938054;0.9134078;0.24790503;0.29469272;0.23893805;0.44247788;0.18584071;0.8680168;0.26675978;0.17178771;0.42477876;0.5132743;0.21238938;0.8310056;0.32891062;0.15363128;0.539823;0.49557522;0.34513274;1.0;0.4301676;0.2730447;0.50442475;0.123893805;0.5221239;0.99441344;0.39315644;0.32472068;0.34513274;0.5575221;0.57522124;0.9797486;0.25837988;0.32122904;0.3539823;0.34513274;0.6460177;0.6019553;0.19273743;0.32472068;0.46902654;0.5663717;0.4159292;0.5412011;0.25628492;0.34497207;0.4159292;0.7876106;0.31858408;0.26955307;0.29818437;0.3715084;0.31858408;1.0;0.19469027;0.06773743;0.3715084;0.46857542;0.40707964;0.6283186;0.21238938;0.0;0.54818434;0.52793294;0.44247788;0.8053097;0.22123894;0.23184358;0.64874303;0.55377096;0.38053098;0.74336284;0.38938054;0.39594972;0.6627095;0.57821226;0.32743362;0.71681416;0.43362832;0.39734638;0.60544693;0.6159218;0.32743362;0.6814159;0.40707964;0.3456704;0.551676;0.64385474
LEFT;0.68;0.0;0.712;0.4753138;0.590795;0.62343097;0.824;0.04;0.76;0.674477;0.33891213;0.22845188;0.976;0.296;0.632;0.7297071;0.24351464;0.0;1.0;0.52;0.496;0.7414226;0.26108786;0.009205021;0.88;0.632;0.528;0.832636;0.41589957;0.16066946;0.72;0.648;0.528;0.9748954;0.67698747;0.50794977;0.68;0.688;0.512;0.93389124;0.80167365;0.716318;0.552;0.648;0.488;1.0;0.87698746;0.84267783;0.52;0.608;0.56;0.9757322;0.883682;0.8677824;0.52;0.536;0.488;0.841841;0.8677824;0.86025107;0.52;0.512;0.44;0.7087866;0.8251046;0.80251044;0.52;0.456;0.496;0.758159;0.85271966;0.75062764;0.504;0.464;0.552;0.72384936;0.809205;0.73138076;0.536;0.392;0.552;0.6794979;0.7924686;0.7054393;0.52;0.416;0.52;0.66527194;0.7874477;0.70292884;0.52;0.384;0.48;0.6368201;0.81506276;0.7305439
LEFT;0.38297874;0.89361703;0.4574468;0.30263767;0.36418325;0.6173068;0.29787233;1.0;0.40957448;0.22489588;0.41739935;0.7811198;0.21276596;0.92021275;0.3776596;0.17677002;0.5053216;0.91763073;0.20744681;0.78723407;0.3776596;0.17445627;0.63026375;0.99167055;0.14361702;0.67021275;0.35106382;0.22813512;0.72882926;1.0;0.122340426;0.49468085;0.41489363;0.20638593;0.76122165;0.89865804;0.20744681;0.22340426;0.48404256;0.122165665;0.60157335;0.7251273;0.44148937;0.04255319;0.57978725;0.21980564;0.4312818;0.4720037;0.5531915;0.0;0.60638297;0.28227672;0.24895881;0.2346136;0.6648936;0.07446808;0.5744681;0.31790838;0.11476169;0.07450254;0.7765958;0.21276596;0.4787234;0.3475243;0.06200833;0.0;0.78723407;0.35106382;0.47340426;0.5497455;0.18093476;0.020360945;0.64361703;0.5638298;0.39893618;0.49236465;0.24895881;0.12077742;0.5159575;0.59574467;0.35638297;0.4349838;0.31466913;0.23692735;0.4680851;0.5265958;0.36702126;0.4386858;0.37158722;0.3229986;0.43085107;0.46276596;0.38297874;0.4595095;0.41045812;0.364646
LEFT;0.0;0.11851852;0.34814814;0.80338734;0.33726066;0.4904271;0.18518518;0.22962964;0.25925925;0.9145803;0.26141384;0.32547864;0.37777779;0.14074074;0.37777779;0.7592047;0.19734904;0.19440353;0.53333336;0.22962964;0.31851852;1.0;0.24226804;0.0832106;0.6296296;0.4;0.2888889;0.94403535;0.32768777;0.0;0.5407407;0.37037036;0.34074074;0.98821795;0.36745214;0.115611196;0.53333336;0.45925927;0.3037037;0.7974963;0.34536082;0.23932253;0.43703705;0.74814814;0.34074074;0.7592047;0.3851252;0.410162;0.36296296;0.8888889;0.2962963;0.55596465;0.44182622;0.60235643;0.32592592;1.0;0.42222223;0.37628865;0.48085418;0.76435935;0.4074074;0.95555556;0.43703705;0.11340206;0.46980855;0.89248896;0.31851852;0.88148147;0.38518518;0.13622975;0.5441826;0.93667156;0.2962963;0.7777778;0.2888889;0.06480118;0.59720176;0.8932253;0.23703703;0.73333335;0.28148147;0.22238587;0.72533137;0.93667156;0.14074074;0.6074074;0.22222222;0.20250368;0.8379971;0.9896907;0.05185185;0.45925927;0.23703703;0.16421208;0.83578795;0.994109
LEFT;1.0;0.30769232;0.32692307;0.9526938;0.25361368;0.0;0.61538464;0.5192308;0.21153846;0.86859393;0.44021025;0.30486202;0.5576923;0.34615386;0.07692308;0.8712221;0.60315377;0.5190539;0.44230768;0.46153846;0.0;0.95795006;0.74638635;0.6189225;0.28846154;0.48076922;0.13461539;0.911958;0.8370565;0.75032854;0.21153846;0.3653846;0.26923078;0.84231275;0.8607096;0.847569;0.23076923;0.25;0.28846154;0.8173456;0.88567674;0.9106439;0.1923077;0.23076923;0.21153846;0.88961893;0.8883049;0.892247;0.23076923;0.15384616;0.26923078;0.93429697;0.8764783;0.9159001;0.21153846;0.115384616;0.25;0.93823916;0.892247;0.9172142;0.28846154;0.07692308;0.23076923;0.95006573;0.9159001;0.9198423;0.26923078;0.13461539;0.21153846;1.0;0.9303548;0.9080158;0.26923078;0.17307693;0.25;0.9237845;0.9198423;0.913272;0.21153846;0.17307693;0.23076923;0.85808146;0.89487517;0.87779236;0.21153846;0.07692308;0.23076923;0.82260185;0.8567674;0.8081472;0.26923078;0.15384616;0.17307693;0.80946124;0.8370565;0.77398163
LEFT;0.46308726;0.95302016;0.59731543;0.6477833;0.6009852;0.8429803;0.3489933;0.9127517;0.5100671;0.5320197;0.6662561;0.95258623;0.25503355;0.8993289;0.38926175;0.44458127;0.7050493;1.0;0.17449665;0.82550335;0.295302;0.3294335;0.76293105;0.9698276;0.13422818;0.60402685;0.3557047;0.54002464;0.8442118;0.8897783;0.13422818;0.7718121;0.3691275;0.51662564;0.9304187;0.9698276;0.18791947;0.68456376;0.38926175;0.26970443;0.97906405;0.91133004;0.20134228;0.22818792;0.5033557;0.019704433;0.6465517;0.8054187;0.557047;0.060402684;0.6979866;0.24076355;0.5110837;0.614532;0.67785233;0.18791947;0.67785233;0.20566502;0.34236452;0.4562808;0.7852349;0.0;0.6510067;0.25800493;0.12007389;0.20073892;0.90604025;0.06711409;0.7114094;0.60899013;0.0;0.08990148;1.0;0.5033557;0.5771812;0.8460591;0.26477832;0.093596056;0.67785233;0.6107383;0.44295302;0.6995074;0.35591134;0.22413793;0.61744964;0.5503356;0.4362416;0.6859606;0.46120688;0.38300493;0.5637584;0.5167785;0.42281878;0.6213054;0.5301724;0.46182266
LEFT;0.45614034;0.7777778;0.4853801;0.6906907;0.61621624;0.58318317;0.30409357;0.94736844;0.47953215;0.55195194;0.62822825;0.67207205;0.19298245;1.0;0.3625731;0.35075074;0.612012;0.7747748;0.18128654;0.94152045;0.30994153;0.34534535;0.74714714;0.85045046;0.14035088;0.84210527;0.33918127;0.37597597;0.83243245;0.91351354;0.15789473;0.76023394;0.32748538;0.2762763;0.84324324;0.9915916;0.25146198;0.5263158;0.4269006;0.27387387;0.8948949;1.0;0.25146198;0.41520467;0.49122807;0.052852854;0.7585586;0.9129129;0.42105263;0.16374269;0.61988306;0.0;0.5081081;0.7267267;0.5906433;0.0;0.67836255;0.15135135;0.27567568;0.43843845;0.68421054;0.07017544;0.7076023;0.28648648;0.11411411;0.1921922;0.7719298;0.0877193;0.625731;0.47807807;0.01981982;0.071471475;0.86549705;0.22222222;0.57894737;0.6246246;0.093693696;0.0054054055;0.76023394;0.44444445;0.4269006;0.6024024;0.203003;0.057057057;0.6374269;0.5204678;0.39766082;0.6654655;0.3813814;0.22582583;0.5614035;0.50292397;0.41520467;0.6126126;0.48468468;0.36036035
LEFT;0.4659091;0.90909094;0.375;0.6208161;0.5277396;0.60706097;0.3693182;1.0;0.3181818;0.47959653;0.62494266;0.81109583;0.2840909;0.97159094;0.21022727;0.36909676;0.74507105;0.93718475;0.1875;0.8806818;0.2840909;0.26639158;0.82118297;0.9477304;0.07954545;0.72727275;0.28977272;0.25905547;0.7854195;1.0;0.125;0.5625;0.30113637;0.1824851;0.7753324;0.9743237;0.17613636;0.42613637;0.41477272;0.2443833;0.79413116;0.9115085;0.14204545;0.3068182;0.5;0.16368638;0.6254012;0.80742776;0.4090909;0.09659091;0.58522725;0.24942687;0.45437872;0.6313618;0.5056818;0.056818184;0.57954544;0.3810179;0.3645117;0.41953233;0.52840906;0.028409092;0.60227275;0.42870244;0.24850985;0.24713434;0.64204544;0.0056818184;0.4943182;0.38972947;0.10545621;0.10912426;0.76704544;0.0;0.5;0.53507566;0.14259514;0.0;0.6193182;0.3693182;0.26704547;0.5034388;0.2352132;0.04860156;0.48295453;0.3181818;0.26136363;0.5387437;0.3640532;0.15084824;0.44886363;0.3693182;0.20454545;0.46446583;0.4681339;0.23796424
LEFT;0.18888889;0.22222222;0.7111111;0.27497864;0.47993168;0.8565329;0.14444445;0.0;0.7222222;0.48334756;0.30230573;0.7147737;0.17777778;0.44444445;0.3888889;0.5542272;0.0529462;0.558497;0.3888889;0.37777779;0.34444445;1.0;0.0;0.36037576;0.5;0.9111111;0.17777778;0.7139197;0.09820666;0.15713066;0.53333336;0.64444447;0.25555557;0.8667805;0.15200683;0.14688301;0.56666666;0.82222223;0.22222222;0.7233134;0.20409906;0.1263877;0.7;0.7111111;0.3888889;0.676345;0.32280102;0.13407344;0.7;1.0;0.3888889;0.23996584;0.3620837;0.27241674;0.62222224;0.6;0.5777778;0.34842014;0.4005124;0.41332194;0.56666666;0.6333333;0.62222224;0.29205808;0.3945346;0.42442358;0.5555556;0.53333336;0.6666667;0.3262169;0.39282665;0.39197266;0.56666666;0.53333336;0.6888889;0.3706234;0.38001707;0.35695985;0.6111111;0.4888889;0.67777777;0.4286934;0.3911187;0.34244236;0.64444447;0.42222223;0.62222224;0.45260462;0.381725;0.30486763;0.7111111;0.34444445;0.7;0.5738685;0.40563622;0.1827498
LEFT;0.5251397;0.81005585;0.41899443;0.594917;0.49896264;0.5803942;0.5139665;0.9497207;0.39106146;0.45954356;0.5596473;0.7157676;0.424581;1.0;0.3519553;0.36462656;0.66701245;0.88952285;0.2905028;0.91061455;0.32960895;0.26400414;0.7733402;0.97147304;0.15642458;0.7318436;0.3463687;0.30290458;0.83661824;0.9631743;0.18994413;0.7318436;0.29608938;0.27385893;0.8246888;0.9424274;0.21787709;0.424581;0.46368715;0.34906638;0.90975106;1.0;0.1396648;0.24581006;0.49162012;0.2614108;0.8708506;0.90352696;0.20111732;0.1452514;0.49720672;0.14574689;0.6078838;0.7292531;0.49720672;0.005586592;0.59217876;0.19917013;0.39056018;0.5077801;0.5363129;0.0;0.6480447;0.23599584;0.25311205;0.31379667;0.547486;0.06703911;0.5363129;0.36099586;0.08713693;0.12914938;0.72625697;0.1452514;0.49720672;0.46161824;0.0;0.037863072;0.8044693;0.30726257;0.46368715;0.6784232;0.18205394;0.08713693;0.5586592;0.51955307;0.32402235;0.6291494;0.34387967;0.2702282;0.5027933;0.41899443;0.3463687;0.6690871;0.47406638;0.4087137
LEFT;0.46889952;0.861244;0.45933014;0.5354627;0.47346172;0.6242367;0.35885167;0.94736844;0.4401914;0.32597464;0.48802254;0.7477689;0.27272728;1.0;0.430622;0.17613903;0.5434476;0.82198215;0.2583732;0.93779904;0.37320575;0.14513856;0.6369187;0.89431655;0.26794258;0.76076555;0.36363637;0.14795679;0.78534526;0.9755754;0.22488038;0.71291864;0.33971292;0.2057304;0.8839831;1.0;0.215311;0.43540668;0.5167464;0.28088304;0.903241;0.91874117;0.29186603;0.27272728;0.54066986;0.0;0.6087365;0.75622356;0.4832536;0.004784689;0.72248805;0.21418506;0.39924848;0.51996243;0.5933014;0.0;0.68899524;0.33912635;0.20244247;0.276186;0.7368421;0.066985644;0.6698565;0.31423202;0.030530766;0.10051668;0.8851675;0.23923445;0.4832536;0.3701268;0.0018788164;0.037106622;0.8564593;0.28708133;0.43540668;0.58102393;0.23673086;0.06434946;0.6555024;0.4449761;0.31578946;0.38280883;0.3790512;0.15547206;0.53588516;0.48803827;0.3014354;0.31705025;0.47017378;0.21465477;0.430622;0.4258373;0.2966507;0.35415688;0.54720527;0.32832316
LEFT;0.0;0.3108108;0.8783784;0.97622025;0.32415518;0.4931164;0.21621622;0.6486486;0.6621622;1.0;0.03128911;0.1864831;0.5405405;1.0;0.45945945;0.84355444;0.0;0.18898623;0.6216216;0.9324324;0.2837838;0.6620776;0.08385482;0.30913642;0.7702703;0.9189189;0.2972973;0.9073842;0.27284107;0.5406758;0.6216216;0.8783784;0.22972973;0.63704634;0.3867334;0.6795995;0.527027;0.7027027;0.3243243;0.4017522;0.50563204;0.6057572;0.5;0.5675676;0.4864865;0.5031289;0.6245307;0.50813514;0.5135135;0.6891892;0.5675676;0.47809762;0.6545682;0.45306632;0.5405405;0.6621622;0.6486486;0.41051313;0.6520651;0.44555694;0.5810811;0.5810811;0.6621622;0.43929914;0.6420526;0.49061325;0.5540541;0.5540541;0.6486486;0.67709637;0.6658323;0.57571965;0.5675676;0.5945946;0.5945946;0.68085104;0.64956194;0.62578225;0.5405405;0.5675676;0.5540541;0.60700876;0.6132666;0.6057572;0.5675676;0.5540541;0.5675676;0.6232791;0.5819775;0.59574467;0.5675676;0.5675676;0.5540541;0.5844806;0.56821024;0.58573216
LEFT;0.48087433;1.0;0.34972677;0.4075369;0.53690755;0.7051282;0.39344263;0.86885244;0.36612022;0.33993784;0.6351981;0.7952603;0.2021858;0.69945353;0.33333334;0.35975137;0.69425017;0.8022533;0.17486338;0.61202186;0.30601093;0.35858586;0.72533023;0.7964258;0.27868852;0.58469945;0.24043716;0.42851594;0.82284385;0.77428126;0.3114754;0.46448088;0.30601093;0.45337996;1.0;0.8045843;0.043715846;0.420765;0.41530055;0.32789433;0.98096347;0.8418803;0.10928962;0.18032786;0.48087433;0.16899768;0.6985237;0.7688423;0.48087433;0.0054644807;0.6502732;0.31895882;0.525641;0.6169386;0.5081967;0.038251366;0.69945353;0.42657343;0.35275835;0.45221445;0.5464481;0.0;0.64480877;0.43978244;0.09324009;0.22960372;0.8852459;0.15300547;0.46994534;0.55710953;0.0;0.047008548;0.95628417;0.44808742;0.39344263;0.6336441;0.21717171;0.06099456;0.56284153;0.58469945;0.21857923;0.4020979;0.36557886;0.18764569;0.47540984;0.36065573;0.2021858;0.34459984;0.49805748;0.33100232;0.43715847;0.3169399;0.24590164;0.45804197;0.6336441;0.45843047
LEFT;0.22222222;0.0952381;0.6984127;0.8496583;0.68451023;1.0;0.11111111;0.0;0.74603176;0.60364467;0.46013668;0.8177677;0.0;0.20634921;0.6031746;0.8291572;0.3553531;0.5307517;0.06349207;0.52380955;0.5873016;0.82460135;0.20387244;0.24715263;0.33333334;0.82539684;0.47619048;0.80979496;0.097949885;0.09339408;0.42857143;0.9206349;0.44444445;0.61047834;0.04214123;0.04328018;0.52380955;1.0;0.33333334;0.5296128;0.004555809;0.037585422;0.6984127;0.9047619;0.3968254;0.26082003;0.0;0.0523918;0.71428573;0.71428573;0.41269842;0.44305238;0.11503417;0.14578588;0.61904764;0.84126985;0.46031746;0.31776765;0.17539863;0.15831435;0.6666667;0.7777778;0.5873016;0.15375854;0.16970387;0.2312073;0.6666667;0.8095238;0.5714286;0.15831435;0.22095671;0.32118452;0.5873016;0.73015875;0.63492066;0.23917995;0.27220955;0.37015945;0.5873016;0.74603176;0.6507937;0.14806378;0.25056946;0.36788154;0.61904764;0.6825397;0.6666667;0.1594533;0.2425968;0.3621868;0.6507937;0.6031746;0.6825397;0.24943052;0.2596811;0.3428246
LEFT;0.76373625;0.8131868;0.51648355;0.16307987;0.6140603;0.65327597;0.65384614;0.6813187;0.6098901;0.241033;0.64418936;0.76183647;0.53296703;0.6208791;0.65384614;0.25155428;0.57101864;0.78766143;0.41758242;0.47802198;0.7802198;0.41080824;0.49354374;0.8091822;0.30769232;0.35714287;0.7692308;0.7326638;0.3328551;0.8794835;0.31318682;0.26923078;0.5824176;0.73888093;0.13199426;0.892396;0.3021978;0.2747253;0.37362638;0.711143;0.0;0.7957915;0.3956044;0.25824177;0.12637363;0.79100907;0.120038256;0.66188425;0.7032967;0.23626374;0.0;0.36011478;0.31133428;0.42563367;0.8681319;0.43956044;0.043956045;0.44332856;0.5753228;0.2635103;0.9230769;0.5879121;0.2032967;0.4261119;0.8139646;0.16068867;1.0;0.67582417;0.43956044;0.4725012;1.0;0.20133907;0.9230769;0.7307692;0.67582417;0.27498806;0.89670014;0.28503108;0.6813187;0.7692308;0.7087912;0.60449547;0.80153036;0.45384982;0.5824176;0.64835167;0.74725276;0.46724054;0.6738403;0.5093257;0.53846157;0.5824176;0.7197802;0.4988044;0.60832137;0.519847