Lable;AccX1;AccY1;AccZ1;GyrX1;GyrY1;GyrZ1;AccX2;AccY2;AccZ2;GyrX2;GyrY2;GyrZ2;AccX3;AccY3;AccZ3;GyrX3;GyrY3;GyrZ3;AccX4;AccY4;AccZ4;GyrX4;GyrY4;GyrZ4;AccX5;AccY5;AccZ5;GyrX5;GyrY5;GyrZ5;AccX6;AccY6;AccZ6;GyrX6;GyrY6;GyrZ6;AccX7;AccY7;AccZ7;GyrX7;GyrY7;GyrZ7;AccX8;AccY8;AccZ8;GyrX8;GyrY8;GyrZ8;AccX9;AccY9;AccZ9;GyrX9;GyrY9;GyrZ9;AccX10;AccY10;AccZ10;GyrX10;GyrY10;GyrZ10;AccX11;AccY11;AccZ11;GyrX11;GyrY11;GyrZ11;AccX12;AccY12;AccZ12;GyrX12;GyrY12;GyrZ12;AccX13;AccY13;AccZ13;GyrX13;GyrY13;GyrZ13;AccX14;AccY14;AccZ14;GyrX14;GyrY14;GyrZ14;AccX15;AccY15;AccZ15;GyrX15;GyrY15;GyrZ15;AccX16;AccY16;AccZ16;GyrX16;GyrY16;GyrZ16;
PUNCH;0.0;0.58247423;0.2525773;0.13942799;0.48518896;0.8942799;0.005154639;0.067010306;0.5927835;0.76200205;0.5418795;0.41470888;0.16494845;0.8041237;0.41752577;0.68130744;0.5168539;0.40602657;0.33505154;0.6185567;0.5412371;0.069969356;0.48314607;0.22216548;1.0;0.5103093;0.5154639;0.22369765;0.46935648;0.0;0.58762884;0.41237113;0.68041235;1.0;0.5898876;0.28498468;0.58762884;0.72164947;0.39175257;0.4652707;0.5173647;0.7574055;0.5103093;0.20618556;0.53608245;0.35955057;0.56843716;0.5771195;0.5103093;0.4072165;0.45876288;0.73595506;0.5812053;0.57354444;0.46907216;0.5463917;0.44329897;0.53319716;0.5771195;0.56792647;0.46907216;0.4226804;0.48969072;0.5434117;0.5674157;0.57558733;0.4484536;0.47938144;0.45360824;0.55617976;0.566905;0.54392236;0.44329897;0.4484536;0.45876288;0.5311542;0.57558733;0.54800814;0.4484536;0.42783505;0.46391752;0.60674155;0.58171606;0.5194076;0.45360824;0.46907216;0.44329897;0.60265577;0.57354444;0.505618;0.46391752;0.48453608;0.45360824;0.5500511;0.5587334;0.4964249
PUNCH;0.0;0.77710843;0.45783132;0.38016528;0.54407716;1.0;0.28313252;0.46385542;0.6807229;0.36570248;0.46969697;0.5123967;0.37951806;0.71686745;0.6566265;0.8305785;0.5509642;0.3553719;0.57831323;0.8614458;0.61445785;0.18939394;0.5385675;0.14738292;1.0;0.67469877;0.61445785;0.0;0.40220386;0.009641874;0.85542166;0.46385542;0.7590361;0.8698347;0.53305787;0.30578512;0.60240966;0.8012048;0.57228917;0.6955923;0.607438;0.6955923;0.6566265;0.56626505;0.55421686;0.21969697;0.57575756;0.630854;0.6385542;0.43975905;0.6204819;0.61294764;0.60055095;0.5943526;0.58433735;0.6084337;0.58433735;0.7004132;0.59917355;0.58539945;0.61445785;0.5903614;0.58433735;0.46625343;0.54614323;0.58953166;0.60240966;0.5421687;0.58433735;0.6170799;0.58264464;0.5557851;0.560241;0.62650603;0.58433735;0.6301653;0.55647385;0.5055096;0.57831323;0.57228917;0.57228917;0.6081267;0.57300276;0.488292;0.62650603;0.560241;0.560241;0.5612948;0.60330576;0.51859504;0.6204819;0.52409637;0.57228917;0.55647385;0.6301653;0.54614323
PUNCH;0.0;0.37419355;0.18064517;0.63907534;0.16703953;1.0;0.12258065;0.20645161;0.36774194;0.7658464;0.47427294;0.56301266;0.12903225;0.516129;0.46451613;0.89709175;0.58687544;0.34675616;0.6;0.5419355;0.59354836;0.48098433;0.7278151;0.15734527;1.0;0.5419355;0.56774193;0.1416853;0.7994034;0.0;0.7032258;0.4967742;0.683871;0.37882176;0.6815809;0.10589112;0.5419355;0.52903223;0.58709675;0.5764355;0.43027592;0.4466816;0.61290324;0.5612903;0.5032258;0.25055927;0.37733036;0.48918718;0.5483871;0.43870968;0.5225806;0.48844147;0.4541387;0.44071588;0.5354839;0.5483871;0.52903223;0.5041014;0.46234155;0.4354959;0.516129;0.5225806;0.52903223;0.44593588;0.45712155;0.41834453;0.52903223;0.5612903;0.516129;0.4720358;0.4772558;0.4287845;0.5225806;0.5612903;0.5354839;0.5212528;0.5145414;0.41014168;0.5032258;0.5548387;0.5354839;0.49813572;0.53243846;0.39075318;0.5096774;0.5225806;0.58064514;0.5667412;0.5510813;0.404176;0.48387095;0.57419354;0.5612903;0.56152123;0.54362416;0.41237882
PUNCH;0.0;0.5479452;0.5684931;0.22142343;0.6362329;1.0;0.28082192;0.6369863;0.53424656;0.18979152;0.3048167;0.48598132;0.4041096;0.7191781;0.5479452;0.3386053;0.16606757;0.25017974;0.5410959;0.80136985;0.5410959;0.13227893;0.08483106;0.14018692;0.9589041;0.739726;0.6164383;0.1588785;0.07548526;0.0;1.0;0.7671233;0.65068495;0.38030195;0.20416966;0.11286844;0.7191781;0.65753424;0.67808217;0.4435658;0.4450036;0.43781453;0.69863015;0.5684931;0.6849315;0.38317758;0.47807333;0.47951114;0.67808217;0.5684931;0.6849315;0.43422;0.43062544;0.41768512;0.6643836;0.58219177;0.6849315;0.4550683;0.4277498;0.42199856;0.6369863;0.58219177;0.65068495;0.43134436;0.41912293;0.42056075;0.6369863;0.6232877;0.6438356;0.42846873;0.41768512;0.40115026;0.63013697;0.6369863;0.6369863;0.3767074;0.39827463;0.39108554;0.60273975;0.6232877;0.6232877;0.3278217;0.38173977;0.38173977;0.6164383;0.56164384;0.63013697;0.19841841;0.3666427;0.35873473;0.63013697;0.49315068;0.6643836;0.26815242;0.3752696;0.3364486
PUNCH;0.0;0.6336207;0.5301724;0.28541774;0.58536583;1.0;0.4224138;0.5689655;0.5689655;0.2823041;0.42397508;0.57187337;0.31465518;0.60775864;0.6163793;0.50233525;0.35806954;0.4317592;0.4827586;0.75431037;0.5603448;0.24182667;0.34405813;0.23871303;0.8405172;0.625;0.6551724;0.11053451;0.30046704;0.02646601;1.0;0.62931037;0.6551724;0.57187337;0.27919045;0.0;0.5258621;0.6551724;0.6163793;0.5137519;0.4379865;0.46081993;0.62931037;0.5948276;0.5905172;0.30513752;0.4530358;0.47483134;0.55172414;0.5603448;0.61206895;0.41307732;0.41255838;0.38816813;0.54310346;0.5991379;0.57758623;0.43072134;0.38349766;0.31862998;0.5560345;0.57327586;0.57758623;0.3025428;0.37571356;0.31188375;0.6034483;0.57758623;0.5646552;0.3601453;0.4115205;0.3264141;0.6163793;0.5689655;0.5991379;0.4302024;0.4327971;0.39335755;0.69827586;0.5258621;0.62931037;0.3866113;0.45355475;0.47586924;0.6939655;0.55172414;0.5948276;0.38816813;0.47016087;0.54125583;0.6810345;0.54741377;0.5991379;0.52620655;0.4903996;0.56875974
PUNCH;0.0;0.6580311;0.5388601;0.7071006;0.51715976;1.0;0.24870466;0.63212436;0.5647668;0.39171597;0.43550295;0.6852071;0.1658031;0.7357513;0.626943;0.56568044;0.39053255;0.44556212;0.26943004;0.9637306;0.59067357;0.24615385;0.27218935;0.3639053;0.74093264;0.7202073;0.626943;0.102366865;0.3289941;0.13254438;1.0;0.6632124;0.6735751;0.088757396;0.33964497;0.0;0.6787565;0.59585494;0.6632124;0.45976332;0.43786982;0.31597632;0.626943;0.507772;0.6476684;0.37218934;0.4668639;0.46449703;0.6217617;0.55440414;0.626943;0.37573963;0.44556212;0.4443787;0.59585494;0.5803109;0.60103625;0.44852072;0.41360947;0.41005918;0.5751295;0.63212436;0.58549225;0.41420117;0.41065088;0.3887574;0.5647668;0.6476684;0.54404145;0.35029587;0.39408284;0.3970414;0.5647668;0.5699482;0.55440414;0.42189348;0.40650886;0.3183432;0.48704663;0.61139894;0.5595855;0.36153847;0.39822486;0.26923078;0.507772;0.5233161;0.5751295;0.42781064;0.3970414;0.24852072;0.5751295;0.51295334;0.5751295;0.3668639;0.42189348;0.2994083
PUNCH;0.71259844;0.53543305;0.5748032;0.7123148;0.55646396;0.5130302;0.48031497;0.6417323;0.515748;0.8037813;0.555442;0.7843638;0.0;0.5905512;0.54330707;0.6923863;0.60449666;1.0;0.44094488;0.5866142;0.53149605;0.19059785;0.44200307;0.5074093;0.21653543;0.6574803;0.53149605;0.68676543;0.36586612;0.46142054;0.33070865;0.78740156;0.5866142;0.23096576;0.37557486;0.42922843;0.54330707;0.6496063;0.62992126;0.06693919;0.36944303;0.20541646;1.0;0.6456693;0.5944882;0.2514052;0.31987736;0.0;0.46850392;0.62204725;0.5826772;0.6775677;0.48185998;0.5334696;0.63779527;0.53543305;0.5984252;0.20081758;0.5145631;0.5733265;0.5866142;0.511811;0.5944882;0.4409811;0.4670414;0.47930506;0.5748032;0.54330707;0.57086617;0.46959633;0.45426673;0.43178335;0.5472441;0.52755904;0.5551181;0.37659684;0.443536;0.42565152;0.57086617;0.511811;0.5590551;0.41032192;0.4404701;0.3525805;0.57086617;0.511811;0.5748032;0.46039855;0.45375574;0.35411343;0.5551181;0.5511811;0.53543305;0.3960143;0.46550843;0.39448136
PUNCH;0.47470817;0.3774319;0.52918285;0.8798398;0.1753449;0.52069426;0.0;0.46303502;0.42023346;1.0;0.105473965;0.7258567;0.48638132;0.78210115;0.46692607;0.2318647;0.29862037;0.46328437;0.3229572;0.48638132;0.5875486;0.5718736;0.45927903;0.33110815;0.26070037;0.6303502;0.5953307;0.56252784;0.39519358;0.35514018;0.5564202;0.75875485;0.5875486;0.019581664;0.59323543;0.28259903;1.0;0.6108949;0.69649804;0.0;0.6559858;0.103248775;0.4319066;0.39688715;0.6342412;0.70627505;0.45571873;0.3729417;0.57587546;0.618677;0.53696495;0.17133956;0.25945705;0.53137517;0.60700387;0.42801556;0.55252916;0.30885625;0.38673788;0.41566533;0.56809336;0.50583655;0.53696495;0.43702716;0.42901647;0.38273254;0.540856;0.54474705;0.5719844;0.42990655;0.43346685;0.3542501;0.540856;0.540856;0.5642023;0.34534934;0.42056075;0.3386738;0.52918285;0.59143966;0.5330739;0.4014241;0.45393857;0.32487762;0.54474705;0.57587546;0.540856;0.40097907;0.43969738;0.3729417;0.55252916;0.52918285;0.56031126;0.3635959;0.4339119;0.3600356
PUNCH;0.0;0.36585367;0.2621951;0.37365854;0.6887805;1.0;0.0060975607;0.60365856;0.25609756;0.3082927;0.38536584;0.62439024;0.1097561;0.597561;0.25;0.47707316;0.36780488;0.5307317;0.34756097;0.50609756;0.34756097;0.056585364;0.24195121;0.27609757;1.0;0.50609756;0.35365853;0.4497561;0.22341463;0.0;0.56707317;0.5792683;0.5;0.7746341;0.7014634;0.52;0.4695122;0.33536586;0.5121951;0.7482927;0.8673171;0.82439023;0.42682928;0.33536586;0.4817073;0.6712195;0.7414634;0.71609753;0.3902439;0.4390244;0.39634147;0.6780488;0.6780488;0.617561;0.38414633;0.41463414;0.41463414;0.62439024;0.657561;0.6331707;0.3597561;0.36585367;0.40853658;0.8009756;0.60097563;0.58634144;0.35365853;0.45731708;0.36585367;0.82439023;0.6087805;0.57756096;0.34146342;0.40853658;0.37195122;0.8185366;0.66146344;0.5482927;0.3292683;0.4512195;0.38414633;0.7092683;0.6107317;0.5356098;0.31707317;0.41463414;0.3597561;0.63512194;0.5795122;0.52585363;0.34756097;0.4512195;0.35365853;0.4897561;0.60292685;0.5590244
PUNCH;0.510101;0.5959596;0.46969697;0.4980631;0.63641393;0.8201439;0.0;0.6010101;0.41919193;0.31211954;0.7415606;1.0;0.15656565;0.3838384;0.43434343;0.034864414;0.6613171;0.79966795;0.22727273;0.42424244;0.54545456;0.28057554;0.53790814;0.5124516;0.2020202;0.4040404;0.59090906;0.47703376;0.40398452;0.35805202;0.5050505;0.5707071;0.6060606;0.4006641;0.2739347;0.14056447;1.0;0.47474748;0.6515151;0.50691754;0.21029331;0.0;0.74747473;0.6262626;0.64646465;0.77089095;0.320974;0.16823465;0.6111111;0.6515151;0.5858586;0.51079136;0.40841174;0.4006641;0.5959596;0.6515151;0.5151515;0.31710017;0.41173217;0.44272274;0.5707071;0.5151515;0.5252525;0.34864417;0.4028777;0.36303264;0.56060606;0.530303;0.540404;0.42778087;0.4056447;0.355285;0.59090906;0.56565654;0.5252525;0.3392363;0.41173217;0.34200332;0.5707071;0.5151515;0.5151515;0.32429442;0.42667404;0.3514112;0.61616164;0.48989898;0.54545456;0.44714996;0.45766464;0.4028777;0.6262626;0.5252525;0.540404;0.45821804;0.47869396;0.47980076
PUNCH;0.6043478;0.6652174;0.6434783;0.50204414;0.39860997;0.6430908;0.46086955;0.76086956;0.47826087;0.6336877;0.40883073;0.83319706;0.0;0.59565216;0.4304348;0.45134914;0.4431725;1.0;0.41304347;0.6;0.47391304;0.1688471;0.43826655;0.7383483;0.36956522;0.27391306;0.6913043;0.63287;0.52085036;0.43172526;0.45217392;0.6478261;0.6130435;0.4255928;0.4816026;0.30089942;0.6;0.47391304;0.7521739;0.22444808;0.4693377;0.14677024;1.0;0.6173913;0.75652176;0.4031071;0.43540475;0.0;0.53913045;0.5608696;0.6956522;0.6316435;0.44071954;0.28250206;0.6043478;0.71304345;0.53913045;0.31684384;0.36958298;0.47833198;0.6347826;0.5217391;0.54347825;0.42354864;0.4362224;0.4084219;0.5782609;0.5869565;0.53913045;0.48609975;0.45502862;0.37735078;0.56956524;0.62608695;0.54347825;0.45134914;0.45666394;0.37816843;0.59565216;0.62608695;0.5565217;0.3977923;0.4693377;0.38184792;0.5347826;0.57391304;0.59565216;0.4946852;0.47833198;0.37735078;0.5608696;0.6391304;0.6;0.45134914;0.449305;0.39002454
PUNCH;0.0;0.33870968;0.48387095;0.27372497;0.0;1.0;0.36290324;0.31048387;0.43145162;0.83021307;0.34473854;0.6623628;0.3830645;0.5645161;0.4032258;0.69399613;0.6016785;0.4389929;0.31854838;0.7096774;0.44758064;0.25629437;0.62943834;0.38605553;0.57258064;0.31854838;0.62903225;0.9774048;0.7740478;0.24080051;1.0;0.7419355;0.5282258;0.6358941;0.9451259;0.032278888;0.641129;0.76209676;0.58870965;0.11749516;0.593286;0.33247256;0.6330645;0.5685484;0.5685484;0.38863784;0.3783086;0.48741123;0.62903225;0.5927419;0.516129;0.35571337;0.4047773;0.47514525;0.5846774;0.62903225;0.48790324;0.30987734;0.5048418;0.4389929;0.5685484;0.625;0.516129;0.41123307;0.59134924;0.44544867;0.5685484;0.5927419;0.53629035;0.6281472;0.62040025;0.4499677;0.5766129;0.5927419;0.54435486;0.6507424;0.61200774;0.48676565;0.625;0.608871;0.5403226;0.55907035;0.5364751;0.47708198;0.6491935;0.5927419;0.5766129;0.52937376;0.4590058;0.4996772;0.67741936;0.6008065;0.5685484;0.62621045;0.38734668;0.5132343
PUNCH;0.084745765;0.519774;0.37853107;0.33530718;0.030347891;0.64396745;0.118644066;0.31073445;0.4858757;0.5233161;0.41820875;0.47890452;0.0;0.32768363;0.46892655;0.623242;0.4988897;0.45521834;0.29943502;0.56497175;0.39548022;0.06735751;0.76091784;0.37749815;1.0;0.3502825;0.5706215;0.0;1.0;0.15766099;0.48022598;0.27118644;0.44067797;0.527017;0.65433013;0.2938564;0.39548022;0.48022598;0.39548022;0.30051813;0.292376;0.45299777;0.46327683;0.40677965;0.38418078;0.392302;0.36047372;0.42857143;0.42937854;0.38418078;0.40677965;0.41894892;0.42857143;0.4122872;0.4124294;0.42937854;0.4124294;0.42709103;0.44485566;0.4122872;0.4124294;0.40677965;0.42372882;0.41524798;0.45669875;0.37749815;0.4180791;0.4124294;0.40677965;0.34863064;0.45373797;0.37897852;0.44067797;0.4124294;0.40677965;0.36639526;0.44781643;0.38860103;0.44067797;0.4180791;0.39548022;0.41302738;0.48778683;0.38638046;0.42372882;0.4180791;0.3898305;0.48704663;0.5388601;0.38564026;0.38418078;0.4519774;0.38418078;0.55588454;0.5669874;0.39304218
PUNCH;0.0;0.5330396;0.5198238;0.33351678;0.570721;1.0;0.39207047;0.6035242;0.52863437;0.40781507;0.5013759;0.57897633;0.26431718;0.71365637;0.5814978;0.5811778;0.46395156;0.41111723;0.36123347;0.7621145;0.5418502;0.12988442;0.36433682;0.36818933;0.65198237;0.59911895;0.6387665;0.22454596;0.31590533;0.11942763;1.0;0.66519827;0.71365637;0.57897633;0.3401211;0.0;0.5550661;0.6343612;0.6431718;0.41441938;0.41717115;0.41441938;0.6563877;0.53744495;0.6431718;0.34122178;0.44964227;0.5360484;0.59030837;0.56828195;0.6167401;0.46670336;0.43423226;0.42377546;0.6035242;0.5726872;0.6255507;0.49972484;0.42927903;0.39240506;0.5550661;0.6431718;0.5506608;0.45514584;0.4023115;0.36653826;0.5638766;0.59911895;0.5550661;0.4347826;0.39405614;0.3296643;0.5506608;0.5418502;0.55947137;0.5806274;0.4072647;0.2839846;0.5418502;0.69603527;0.50660795;0.44468904;0.38580078;0.330765;0.6255507;0.62114537;0.59030837;0.44854155;0.4193726;0.45734727;0.6784141;0.59911895;0.5859031;0.39130434;0.4386351;0.48816732
PUNCH;0.09271523;0.4437086;0.38410595;0.48664343;0.86178863;1.0;0.03311258;0.6225166;0.3245033;0.75842047;0.6155633;0.699187;0.0;0.589404;0.3642384;0.6806039;0.45876887;0.63995355;0.410596;0.6092715;0.33774835;0.23228803;0.17189315;0.19976771;1.0;0.58278143;0.45033112;0.66085947;0.20557491;0.0;0.4834437;0.615894;0.46357617;0.8664344;0.74912894;0.7049942;0.5231788;0.3576159;0.53642386;0.6318235;0.90011615;0.91056913;0.43046358;0.41721854;0.49668875;0.7108014;0.77700347;0.7886179;0.4437086;0.410596;0.4834437;0.75842047;0.72357726;0.699187;0.4370861;0.39072847;0.43046358;0.81881535;0.6817654;0.6631823;0.45695364;0.37748346;0.397351;0.80139375;0.68873405;0.5900116;0.46357617;0.4437086;0.42384106;0.75842047;0.7363531;0.6074332;0.4437086;0.47019866;0.42384106;0.63646924;0.79094076;0.66898954;0.4370861;0.5033113;0.47019866;0.67479676;0.7955865;0.73867595;0.43046358;0.45033112;0.4834437;0.6318235;0.7514518;0.7653891;0.39072847;0.47682118;0.4370861;0.60859466;0.7015099;0.8095238
PUNCH;0.16384181;0.33898306;0.3220339;0.25877193;0.59283626;0.82236844;0.0;0.49717513;0.31638417;0.9883041;0.5701754;0.53143275;0.084745765;0.75141245;0.2937853;0.89327484;0.46710527;0.5994152;0.42372882;0.5141243;0.33898306;0.083333336;0.6016082;0.21491228;1.0;0.33898306;0.42937854;0.4510234;0.5972222;0.0;0.37853107;0.39548022;0.50282484;1.0;0.66812867;0.5285088;0.47457626;0.27683616;0.47457626;0.39692983;0.62134504;0.80774856;0.43502825;0.2542373;0.44067797;0.60599416;0.6323099;0.6381579;0.4124294;0.33898306;0.4180791;0.750731;0.59356725;0.6608187;0.3898305;0.3502825;0.40112993;0.7273392;0.59210527;0.625731;0.36158192;0.40677965;0.4180791;0.66374266;0.59429824;0.5497076;0.31638417;0.46327683;0.36158192;0.7770468;0.5826023;0.45906433;0.30508474;0.5141243;0.3898305;0.6878655;0.5643275;0.34210527;0.3559322;0.50282484;0.38418078;0.57967836;0.5979532;0.3633041;0.33898306;0.5141243;0.3559322;0.51754385;0.58114034;0.45687133;0.4124294;0.46892655;0.33898306;0.4502924;0.5635965;0.5701754
PUNCH;0.77294683;0.79710144;0.6038647;0.5423234;0.5884413;0.49854058;0.49275362;0.71014494;0.5603865;0.7332166;0.6917688;0.81377697;0.0;0.79710144;0.47342995;0.3870403;0.7483946;1.0;0.09178744;0.647343;0.4299517;0.41564506;0.59077644;0.8890835;0.24637681;0.589372;0.5169082;0.20548744;0.40863982;0.48453006;0.294686;0.7294686;0.5797101;0.27262112;0.31873906;0.41798016;0.531401;0.73429954;0.6183575;0.051955633;0.2288383;0.19147694;1.0;0.5942029;0.705314;0.35960305;0.14127262;0.0;0.87439615;0.65700483;0.7874396;0.35551664;0.2936369;0.16695856;0.6135266;0.68599033;0.6183575;0.4938704;0.42615294;0.5143024;0.5555556;0.5169082;0.5845411;0.33683595;0.36193812;0.364857;0.531401;0.4830918;0.5797101;0.40747228;0.31348512;0.2428488;0.5555556;0.5748792;0.5603865;0.37127846;0.364857;0.29889083;0.5652174;0.5507246;0.5652174;0.364857;0.38820782;0.3578517;0.6425121;0.49275362;0.6086956;0.3403386;0.4092236;0.44074723;0.7536232;0.49758455;0.59903383;0.3969644;0.489784;0.57559836
PUNCH;0.0;0.47761193;0.45149255;0.5219267;0.0;0.9000719;0.49253732;0.6865672;0.4402985;0.0690151;0.37886414;0.58519053;0.37686568;0.53731346;0.5335821;0.94392526;0.58878505;0.39324227;0.4477612;0.6977612;0.5074627;0.77857655;0.6534867;0.38892883;0.6902985;0.6007463;0.58208954;0.2077642;0.9482387;0.17541337;1.0;0.5932836;0.6529851;0.47663552;1.0;0.14378145;0.51119405;0.39179105;0.6604478;0.97627604;0.6017254;0.4471603;0.58208954;0.6007463;0.5410448;0.3572969;0.40905824;0.53630483;0.57835823;0.48134327;0.61567163;0.6628325;0.5463695;0.47879225;0.54850745;0.6268657;0.58208954;0.65780014;0.5909418;0.39468008;0.5261194;0.5671642;0.630597;0.82386774;0.6369518;0.35010785;0.54850745;0.60820895;0.66791046;0.89719623;0.5794392;0.3450755;0.6007463;0.69402987;0.6865672;0.80445725;0.48166788;0.43925235;0.60820895;0.72761196;0.6641791;0.5521208;0.36304817;0.53918046;0.6380597;0.6641791;0.70149255;0.34363768;0.30337885;0.6362329;0.6828358;0.75;0.6268657;0.06685837;0.3184759;0.69086987
PUNCH;0.0;0.65868264;0.22155689;0.37468672;0.62030077;1.0;0.4071856;0.50898206;0.38922155;0.5401003;0.5802005;0.5169173;0.251497;0.74251497;0.4071856;0.75250626;0.5231829;0.5112782;0.4251497;0.52095807;0.5928144;0.6704261;0.5538847;0.33458647;0.98802394;0.8562874;0.55688626;0.12907268;0.51065165;0.0;1.0;0.56886226;0.83832335;0.6516291;0.4385965;0.0914787;0.51497006;0.70658684;0.66467065;0.52380955;0.5068922;0.59774435;0.61676645;0.4790419;0.6886228;0.31015038;0.4943609;0.5601504;0.5449102;0.5269461;0.6047904;0.35714287;0.43922305;0.466792;0.53892213;0.53892213;0.5508982;0.5319549;0.44110274;0.39786968;0.50898206;0.5928144;0.46706587;0.3765664;0.43358395;0.34837094;0.502994;0.4790419;0.50898206;0.4793233;0.4642857;0.29573935;0.56287426;0.5808383;0.48502994;0.4924812;0.48182958;0.3189223;0.5808383;0.55688626;0.51497006;0.4906015;0.5;0.41917294;0.6886228;0.5329341;0.52095807;0.4216792;0.5382205;0.52756894;0.7005988;0.51497006;0.61676645;0.5100251;0.5770677;0.6472431
PUNCH;0.0;0.5848214;0.4955357;0.1412399;0.65013474;1.0;0.3794643;0.48660713;0.55803573;0.28787062;0.5061995;0.612938;0.29464287;0.50446427;0.5625;0.5504043;0.4291105;0.35148248;0.36160713;0.62946427;0.59375;0.40862533;0.37088948;0.20161726;0.7723214;0.59821427;0.62946427;0.18382749;0.3051213;0.0;1.0;0.59375;0.6785714;0.6447439;0.25822103;0.012398922;0.5714286;0.6160714;0.63839287;0.5601078;0.41078168;0.40161726;0.6026786;0.63839287;0.58035713;0.29433963;0.44366577;0.54986525;0.61160713;0.53125;0.58035713;0.3045822;0.4328841;0.52021563;0.58035713;0.50446427;0.5625;0.44690028;0.4156334;0.47385445;0.5401786;0.5535714;0.53571427;0.47115904;0.41078168;0.39568734;0.54464287;0.58035713;0.53571427;0.419407;0.39568734;0.33369273;0.56696427;0.5625;0.54464287;0.4458221;0.41725066;0.3148248;0.58035713;0.57589287;0.56696427;0.4754717;0.43827492;0.33962265;0.57589287;0.55803573;0.56696427;0.43989217;0.44366577;0.361186;0.5848214;0.59375;0.52678573;0.40808624;0.43773586;0.41185984
PUNCH;0.0;0.7346939;0.52040815;0.64962965;0.52666664;1.0;0.21428572;0.8214286;0.56632656;0.16740741;0.3325926;0.59481484;0.19387755;0.84183675;0.5510204;0.46962962;0.24962963;0.4888889;0.36734694;0.89285713;0.627551;0.12814815;0.24444444;0.37851852;0.7653061;0.78571427;0.59183675;0.053333335;0.22296296;0.027407408;1.0;0.6632653;0.7091837;0.17481482;0.2637037;0.0;0.6938776;0.5408163;0.72959185;0.62296295;0.44518518;0.45185184;0.65816325;0.59183675;0.68367344;0.32444444;0.45333335;0.4637037;0.6122449;0.6020408;0.63265306;0.49555555;0.37851852;0.4074074;0.5561224;0.64285713;0.56122446;0.3288889;0.3325926;0.29703704;0.5102041;0.6122449;0.5561224;0.24814814;0.28592592;0.21185185;0.5510204;0.5816327;0.53061223;0.19925927;0.2985185;0.19555555;0.5969388;0.53571427;0.5714286;0.13259259;0.31333333;0.28666666;0.6989796;0.46938777;0.59183675;0.018518519;0.33185184;0.40814814;0.78061223;0.37244898;0.6377551;0.2362963;0.39185184;0.5740741;0.82653064;0.4030612;0.622449;0.32962963;0.46;0.6392593
PUNCH;0.40828404;0.74556214;0.6449704;0.5966278;0.6219196;0.4682231;0.49112427;0.7692308;0.6863905;0.35538262;0.5946822;0.53437096;0.49112427;0.7278106;0.66863906;0.3138781;0.5453956;0.56679636;0.5325444;0.852071;0.6213018;0.0;0.46368352;0.5687419;0.6331361;0.52662724;0.70414203;0.36381322;0.48249027;0.56679636;0.75739646;0.65088755;0.7337278;0.5544747;0.4533074;0.4915694;0.79881656;0.65088755;0.7278106;0.8514916;0.4079118;0.37224385;0.87573963;0.82840234;0.591716;0.9299611;0.47016862;0.37872893;0.7633136;0.75147927;0.61538464;0.886511;0.64721143;0.5090791;0.4260355;0.6449704;0.5325444;0.8988327;0.769131;0.7380026;0.0;0.7928994;0.4260355;0.46303502;0.7846952;1.0;0.03550296;0.6923077;0.35502958;0.055123217;0.7068742;0.9066148;0.22485207;0.7337278;0.4260355;0.20622568;0.51361865;0.6258106;0.30177516;0.71005917;0.4556213;0.3294423;0.35862517;0.47016862;0.6331361;0.8224852;0.4733728;0.15499352;0.27237353;0.30998704;1.0;0.6390532;0.5502958;0.42542154;0.27885863;0.1309987
PUNCH;0.5492958;0.33802816;0.64788735;0.286578;0.5453446;0.47279322;0.52112675;0.46478873;0.53521127;0.20072551;0.5296252;0.52237004;0.45070422;0.29577464;0.53521127;0.43651754;0.42079806;0.42079806;0.36619717;0.4225352;0.47887325;0.4171705;0.3796856;0.37605804;0.1971831;0.36619717;0.4225352;0.27932286;0.2261185;0.2249093;0.112676054;0.3802817;0.35211268;0.11608222;0.020556228;0.0;0.07042254;0.23943663;0.36619717;0.44860944;0.054413542;0.015719468;0.2535211;0.29577464;0.4084507;0.14993954;0.1777509;0.12091898;0.4084507;0.16901408;0.47887325;0.27085853;0.29504234;0.28174123;0.73239434;0.26760563;0.47887325;0.24183796;0.5356711;0.60338575;0.943662;0.04225352;0.64788735;0.43288997;0.7944377;0.94679564;1.0;0.1971831;0.6056338;0.041112456;0.80411124;1.0;0.8169014;0.0;0.6619718;0.36275697;0.668682;0.94437724;0.70422536;0.056338027;0.5633803;0.25030228;0.50181377;0.78476423;0.5492958;0.04225352;0.5633803;0.38573155;0.38452238;0.57920194;0.4084507;0.14084508;0.47887325;0.49214026;0.31801692;0.407497
PUNCH;0.0;0.7290323;0.4903226;0.14415675;0.7095871;1.0;0.18709677;0.6903226;0.5483871;0.2743177;0.4926522;0.6361092;0.21290323;0.716129;0.52903223;0.27781665;0.310007;0.4569629;0.47741935;0.7032258;0.5483871;0.20643806;0.14275718;0.253324;0.9741936;0.683871;0.59354836;0.21763471;0.06438068;0.0;1.0;0.7354839;0.6903226;0.57382786;0.22813156;0.088173546;0.7225807;0.7032258;0.6451613;0.34849545;0.4310707;0.43247026;0.65806454;0.57419354;0.67096776;0.39118263;0.4793562;0.463261;0.63870966;0.58709675;0.6516129;0.4079776;0.4359692;0.4303709;0.61290324;0.59354836;0.63870966;0.42547235;0.40377888;0.3946816;0.60645163;0.63225806;0.58709675;0.4303709;0.39118263;0.38908327;0.58709675;0.60645163;0.6;0.4016795;0.3869839;0.3869839;0.5612903;0.61935484;0.57419354;0.35549337;0.34779567;0.31210637;0.5354839;0.5612903;0.57419354;0.36668998;0.31840447;0.24842547;0.48387095;0.5419355;0.6;0.33449966;0.3240028;0.23792861;0.5548387;0.52903223;0.63870966;0.26662;0.34779567;0.28201538
PUNCH;1.0;0.0;0.5131579;0.32284543;0.49384406;1.0;0.80263156;0.078947365;0.39473686;0.2599179;0.4254446;0.69083446;0.5263158;0.19736843;0.5;0.45554036;0.40629274;0.3871409;0.35526314;0.28947368;0.5;0.47879618;0.3119015;0.20519836;0.2631579;0.19736843;0.43421054;0.62106705;0.2872777;0.03967168;0.36842105;0.32894737;0.35526314;0.6005472;0.37209302;0.0;0.3026316;0.32894737;0.39473686;0.6607387;0.48563612;0.032831736;0.2631579;0.34210527;0.38157895;0.43228453;0.4528044;0.10533515;0.25;0.34210527;0.35526314;0.4008208;0.39261284;0.20109439;0.27631578;0.46052632;0.39473686;0.30506155;0.3857729;0.31874144;0.27631578;0.40789473;0.40789473;0.30642954;0.3515732;0.3871409;0.3026316;0.39473686;0.40789473;0.28454173;0.29411766;0.40218878;0.35526314;0.38157895;0.40789473;0.2995896;0.27770177;0.37619698;0.38157895;0.40789473;0.39473686;0.3132695;0.32010943;0.3611491;0.32894737;0.36842105;0.43421054;0.34473324;0.35978112;0.3351573;0.32894737;0.40789473;0.4473684;0.3132695;0.3255814;0.34062928