Lable;AccX1;AccY1;AccZ1;GyrX1;GyrY1;GyrZ1;AccX2;AccY2;AccZ2;GyrX2;GyrY2;GyrZ2;AccX3;AccY3;AccZ3;GyrX3;GyrY3;GyrZ3;AccX4;AccY4;AccZ4;GyrX4;GyrY4;GyrZ4;AccX5;AccY5;AccZ5;GyrX5;GyrY5;GyrZ5;AccX6;AccY6;AccZ6;GyrX6;GyrY6;GyrZ6;AccX7;AccY7;AccZ7;GyrX7;GyrY7;GyrZ7;AccX8;AccY8;AccZ8;GyrX8;GyrY8;GyrZ8;AccX9;AccY9;AccZ9;GyrX9;GyrY9;GyrZ9;AccX10;AccY10;AccZ10;GyrX10;GyrY10;GyrZ10;AccX11;AccY11;AccZ11;GyrX11;GyrY11;GyrZ11;AccX12;AccY12;AccZ12;GyrX12;GyrY12;GyrZ12;AccX13;AccY13;AccZ13;GyrX13;GyrY13;GyrZ13;AccX14;AccY14;AccZ14;GyrX14;GyrY14;GyrZ14;AccX15;AccY15;AccZ15;GyrX15;GyrY15;GyrZ15;AccX16;AccY16;AccZ16;GyrX16;GyrY16;GyrZ16;
RIGHT;0.5974026;0.8701299;0.8051948;0.6550138;0.12879485;0.69181234;0.74025977;0.6363636;0.41558442;0.6080957;0.061637536;0.8804048;0.84415585;0.4025974;0.15584415;0.40294388;0.0;1.0;1.0;0.2987013;0.16883117;0.33854645;0.30174792;0.9227231;0.58441556;0.103896104;0.0;0.75344986;0.4627415;0.8528059;0.41558442;0.19480519;0.051948052;0.5942962;0.56577736;0.77644897;0.32467532;0.14285715;0.19480519;0.7120515;0.65409386;0.70101196;0.25974026;0.35064936;0.24675325;0.7074517;0.676173;0.67341304;0.27272728;0.23376623;0.35064936;0.70561177;0.66145355;0.6688132;0.33766234;0.24675325;0.3116883;0.6458142;0.63661456;0.6697332;0.35064936;0.23376623;0.32467532;0.6853726;0.63569456;0.6513339;0.32467532;0.2987013;0.27272728;0.6274149;0.63109475;0.63937443;0.3116883;0.2987013;0.27272728;0.6402944;0.63937443;0.625575;0.2987013;0.33766234;0.2857143;0.650414;0.65409386;0.63109475;0.3116883;0.32467532;0.2857143;0.6448942;0.65409386;0.6421343;0.2857143;0.3116883;0.2987013;0.6292548;0.6430543;0.63661456
RIGHT;0.22222222;0.35858586;0.0959596;0.35003713;0.768003;0.4536006;0.17676768;0.28787878;0.2979798;0.5460282;0.9977728;0.38938382;0.07575758;0.2777778;0.34848484;0.5545657;1.0;0.26429102;0.0;0.35353535;0.8737374;0.6848552;0.8188567;0.28025243;0.24747474;0.55050504;0.95454544;0.65219;0.57720864;0.27951002;0.43434343;0.66161615;1.0;0.6714922;0.30883443;0.34929472;0.6363636;0.75757575;0.7878788;0.4446919;0.016703786;0.45768374;0.7777778;0.85353535;0.7878788;0.49034894;0.0;0.61878246;0.93939394;0.75252527;0.37373737;0.4298441;0.15478842;0.62212324;0.77272725;0.66161615;0.37878788;0.51224947;0.26985896;0.64476615;0.7626263;0.5555556;0.4040404;0.44060877;0.34706756;0.6139569;0.6212121;0.530303;0.4090909;0.4521158;0.39495173;0.59317;0.57575756;0.3989899;0.43434343;0.44023755;0.42761692;0.57238305;0.52020204;0.46464646;0.479798;0.4769859;0.4617669;0.5560505;0.5050505;0.42424244;0.45454547;0.49554566;0.47847068;0.5463994;0.4949495;0.42929292;0.45454547;0.49183372;0.48812175;0.53526354
RIGHT;0.5;0.0;0.23863636;0.7690254;0.1495327;0.43257678;0.5;0.19318181;0.20454545;0.7570093;0.3271028;0.16288385;0.59090906;0.35227272;0.18181819;0.7276369;0.4739653;0.005340454;0.6363636;0.57954544;0.27272728;0.7263017;0.58878505;0.0;0.6136364;1.0;0.19318181;0.47663552;0.68357813;0.13751669;0.53409094;0.875;0.39772728;0.4445928;0.6929239;0.3471295;0.5568182;0.8181818;0.3409091;0.11481976;0.57810414;0.48998666;0.60227275;0.60227275;0.2840909;0.08010681;0.5340454;0.58878505;0.6363636;0.4090909;0.26136363;0.13751669;0.65821093;0.5260347;0.65909094;0.2840909;0.32954547;0.20694259;0.8251001;0.47930574;0.6136364;0.25;0.3409091;0.14419226;0.870494;0.35914552;0.47727272;0.2159091;0.4659091;0.5540721;0.9986649;0.3364486;0.39772728;0.45454547;0.53409094;0.65821093;1.0;0.30173564;0.3181818;0.52272725;0.5568182;0.63951933;0.82777035;0.41388518;0.35227272;0.5568182;0.5681818;0.6622163;0.68357813;0.49799734;0.39772728;0.52272725;0.5681818;0.70627505;0.61148196;0.56875837
RIGHT;0.0;0.3381295;1.0;0.77784324;0.7077195;0.2922805;0.09352518;0.5539568;0.89928055;0.7460224;0.39835003;0.2139069;0.28057554;0.5683453;0.8417266;0.5315262;0.16735415;0.33883324;0.25179857;0.7266187;0.53956836;0.53388333;0.018267531;0.52622277;0.44604316;0.63309354;0.51079136;0.45020625;0.0;0.7530937;0.5827338;0.64748204;0.22302158;0.5226871;0.114319384;0.87743074;0.5539568;0.38129497;0.30215827;0.6034178;0.28285208;1.0;0.4172662;0.4532374;0.1294964;0.5486152;0.26458457;0.9546258;0.4676259;0.1438849;0.21582733;0.48143783;0.3653506;0.88273424;0.41007194;0.09352518;0.24460432;0.54272246;0.39010018;0.77136123;0.23741007;0.09352518;0.17985612;0.5633471;0.39599293;0.6210961;0.37410071;0.107913665;0.1438849;0.46493813;0.39010018;0.5680613;0.4388489;0.17266187;0.17985612;0.51208013;0.415439;0.5680613;0.4172662;0.2086331;0.11510792;0.6075427;0.4295816;0.59693575;0.48920864;0.16546762;0.1438849;0.6346494;0.578079;0.58750737;0.47482014;0.2733813;0.1438849;0.60400707;0.63700646;0.5963465
RIGHT;0.0;0.3809524;0.4857143;0.68625826;0.8807947;0.59933776;0.123809524;0.42857143;0.51428574;0.7102649;0.84437084;0.42880794;0.1904762;0.36190477;0.53333336;0.8013245;0.80215234;0.23841059;0.3904762;0.5714286;0.6761905;0.79304636;0.69205296;0.052152317;0.4857143;0.7809524;0.52380955;0.5289735;0.5687086;0.0;0.50476193;0.41904762;0.63809526;0.8476821;0.5273179;0.12996688;0.4952381;0.37142858;0.5904762;0.9966887;0.589404;0.18294702;0.6;0.46666667;0.552381;0.8783113;0.589404;0.22433774;0.6952381;0.51428574;0.51428574;1.0;0.61506623;0.39072847;0.8095238;0.64761907;0.52380955;0.95115894;0.62086093;0.5968543;0.85714287;0.7619048;0.5714286;0.7955298;0.5397351;0.7433775;0.8857143;1.0;0.50476193;0.48096028;0.36672187;0.839404;0.9238095;0.85714287;0.41904762;0.25662252;0.35513246;0.94205296;0.93333334;0.75238097;0.4;0.21937086;0.3807947;0.95612586;0.8857143;0.5904762;0.34285715;0.18294702;0.48758277;0.9710265;0.84761906;0.46666667;0.14285715;0.13162252;0.7450331;0.8460265
RIGHT;0.101123594;0.5449438;1.0;0.7876182;0.65133274;0.2622528;0.17977528;0.69101125;0.92134833;0.6870163;0.3989682;0.32717112;0.28651685;0.96067417;0.85955054;0.5640585;0.092863284;0.47850388;0.3988764;0.83707863;0.55617976;0.4505589;0.0;0.67024934;0.5730337;0.7078652;0.44382024;0.46259674;0.078245915;0.8693035;0.6797753;0.60674155;0.17977528;0.3976784;0.19819432;0.9840929;0.5730337;0.33707866;0.24719101;0.42691314;0.3039553;1.0;0.5730337;0.050561797;0.15730338;0.3761823;0.4810834;0.9196045;0.5280899;0.0;0.252809;0.41788477;0.48710233;0.8009458;0.41573033;0.084269665;0.26404494;0.47162512;0.5189166;0.6698194;0.2977528;0.08988764;0.26404494;0.4845228;0.5520206;0.55159074;0.31460676;0.28651685;0.3483146;0.52364576;0.60490113;0.49355116;0.20786516;0.31460676;0.31460676;0.5898538;0.594583;0.4905417;0.17977528;0.4213483;0.39325842;0.7059329;0.66251075;0.5012898;0.20786516;0.41011235;0.40449437;0.62252796;0.64918315;0.47979364;0.2752809;0.4775281;0.46629214;0.644454;0.62252796;0.43594152
RIGHT;0.43367347;0.29081634;0.53061223;0.47721946;0.24238479;0.26555586;0.5408163;0.32142857;0.46938777;0.5076803;0.22988805;0.30590993;0.7653061;0.44387755;0.3112245;0.45743296;0.25123665;0.37360063;0.75;0.5408163;0.1632653;0.4251497;0.24655038;0.46758658;0.8520408;0.6938776;0.08163265;0.22832596;0.35954177;0.49830773;0.6989796;0.47959185;0.0;0.16870606;0.5751107;0.6011455;0.56632656;0.37755102;0.08163265;0.22494142;0.72897685;0.58942986;0.27040815;0.2244898;0.18367347;0.33532935;0.8409268;0.5110648;0.2857143;0.15306123;0.5153061;0.4923197;1.0;0.3691747;0.1377551;0.28061223;0.5816327;0.54204637;0.89586043;0.29809946;0.10714286;0.38265306;0.81632656;0.59307474;0.6342098;0.22233793;0.10204082;0.5969388;0.99489796;0.52980995;0.39546993;0.22546212;0.3265306;0.75510204;1.0;0.44051027;0.18614943;0.30096328;0.45918366;0.78061223;0.72959185;0.37255922;0.012757095;0.46472272;0.65816325;0.74489796;0.61734694;0.43217912;0.0;0.6664931;0.72959185;0.63265306;0.5;0.44571728;0.17651653;0.66987765
RIGHT;0.7744361;0.48872182;0.2932331;0.52108246;0.2630585;1.0;0.56390977;0.45112783;0.21052632;0.48332286;0.38137195;0.969163;0.39097744;0.2706767;0.33834586;0.37948394;0.56891125;0.88294524;0.21804512;0.33082706;0.37593985;0.15733166;0.5292637;0.78980494;0.20300752;0.05263158;0.49624062;0.019509126;0.5431089;0.6645689;0.31578946;0.0;0.5338346;0.0025173065;0.5821271;0.47388294;0.42105263;0.21052632;0.62406015;0.30711138;0.61296415;0.21711768;0.44360903;0.47368422;0.57894737;0.28760228;0.4468219;0.030207679;0.57894737;0.518797;0.62406015;0.55443674;0.4323474;0.010069226;0.5488722;0.96240604;0.5488722;0.68344873;0.41032097;0.0;0.48872182;0.96240604;0.60902256;0.7614852;0.35305223;0.06356199;0.46616542;1.0;0.518797;0.502832;0.2976715;0.14977974;0.44360903;0.80451125;0.5112782;0.56135935;0.3524229;0.18376337;0.48120302;0.80451125;0.45112783;0.45185652;0.34927627;0.2435494;0.556391;0.63909775;0.5112782;0.50723726;0.37759596;0.342983;0.59398496;0.7067669;0.44360903;0.48269352;0.42731276;0.39899307
RIGHT;0.0;0.7151899;0.664557;0.6490499;0.7108076;0.0;0.012658228;0.87341774;0.70253164;0.7452494;0.54691213;0.22446556;0.18354431;1.0;0.6962025;0.682304;0.40914488;0.5190024;0.556962;0.98734176;0.53797466;0.554038;0.33016628;0.78087884;0.70886075;0.79746836;0.443038;0.41152018;0.34382424;0.9311164;0.7531645;0.664557;0.443038;0.51425177;0.40795726;1.0;0.7531645;0.56329113;0.43670887;0.44893113;0.50950116;0.9827791;0.7278481;0.44936708;0.38607594;0.4317102;0.554038;0.91686463;0.5316456;0.35443038;0.46835443;0.5653207;0.5997625;0.8355107;0.51898736;0.37341774;0.43670887;0.5587886;0.57719713;0.7589074;0.5063291;0.4177215;0.4620253;0.5136579;0.5635392;0.7024941;0.53797466;0.38607594;0.47468355;0.56057006;0.567696;0.6543943;0.5;0.43037975;0.4556962;0.56710213;0.57066506;0.6110451;0.49367088;0.4113924;0.44936708;0.56710213;0.57304037;0.5825416;0.47468355;0.4556962;0.44936708;0.57185274;0.56828976;0.56294537;0.4620253;0.443038;0.43670887;0.5700713;0.567696;0.5647268
RIGHT;0.38513514;0.1418919;0.0;0.1783054;0.65456235;0.44785848;0.29054055;0.16891892;0.013513514;0.4529795;0.81657356;0.4641527;0.1891892;0.2027027;0.22972973;0.71927375;0.9492551;0.41945997;0.074324325;0.31756756;0.49324325;0.9967412;1.0;0.36312848;0.06081081;0.4864865;0.8310811;0.89944136;0.8337989;0.22020485;0.27027026;0.6418919;0.8986486;0.8272812;0.58472997;0.20065176;0.3310811;0.7027027;1.0;0.7094972;0.30865923;0.2481378;0.5135135;0.9864865;0.8581081;0.39757913;0.06424581;0.37756053;0.777027;0.9256757;0.7567568;0.3500931;0.0;0.5395717;0.8445946;0.7905405;0.49324325;0.44180635;0.075418994;0.71182495;0.7364865;0.722973;0.5202703;0.45018622;0.18808194;0.74068904;0.75;0.6081081;0.4527027;0.3747672;0.28631285;0.7039106;0.6283784;0.4256757;0.3918919;0.45903167;0.38268158;0.6387337;0.527027;0.44594595;0.4189189;0.42877096;0.41061452;0.5744879;0.527027;0.3918919;0.45945945;0.41387337;0.4162011;0.5288641;0.5;0.4527027;0.4527027;0.45996276;0.44832402;0.50605214
RIGHT;0.3030303;0.32323232;0.045454547;0.37678635;0.6357616;0.4865807;0.22727273;0.2777778;0.121212125;0.42418963;0.7967933;0.45486233;0.14141414;0.20707071;0.4949495;0.65423495;1.0;0.37295225;0.121212125;0.3030303;0.4040404;0.5890554;0.9355176;0.27187175;0.0;0.33333334;0.8080808;0.6228651;0.7162774;0.283374;0.1969697;0.5707071;1.0;0.58870685;0.45625654;0.22795399;0.36363637;0.6919192;0.90909094;0.49529454;0.20634368;0.27326596;0.43939394;0.75757575;0.6363636;0.338794;0.0;0.39909375;0.59090906;0.74747473;0.7929293;0.44789127;0.038340885;0.54827464;0.72727275;0.68686867;0.4949495;0.4078076;0.1387243;0.5768561;0.67676765;0.5151515;0.34848484;0.433252;0.2488672;0.6050889;0.6262626;0.4090909;0.37373737;0.4820495;0.3597072;0.59637505;0.5959596;0.42929292;0.33333334;0.45451376;0.3816661;0.56361103;0.5050505;0.36363637;0.35353535;0.4318578;0.39700243;0.514465;0.46464646;0.36363637;0.3838384;0.43464622;0.44196585;0.47019866;0.42424244;0.3888889;0.4040404;0.43917742;0.46113628;0.45590797
RIGHT;0.020134227;0.32885906;0.67785233;0.7292788;0.926803;0.13401507;0.0;0.4161074;0.9261745;0.72066736;0.6765339;0.12594187;0.13422818;0.5167785;1.0;0.6108719;0.37782562;0.11840689;0.23489933;0.80536914;0.70469797;0.48277718;0.07212056;0.20882669;0.5503356;0.9932886;0.6308725;0.44617867;0.0;0.48116255;0.6375839;0.96644294;0.61744964;0.5091496;0.0026910657;0.6770721;0.7315436;0.86577183;0.44295302;0.376211;0.041980624;0.8616792;0.81208056;0.7114094;0.30872482;0.39235738;0.15069968;0.9660926;0.7919463;0.4295302;0.39597315;0.38266954;0.31216362;1.0;0.6308725;0.19463088;0.32214764;0.4634015;0.37997848;0.8083961;0.54362416;0.19463088;0.32885906;0.4547901;0.4510226;0.631324;0.44966444;0.2080537;0.34228188;0.44402584;0.4660926;0.48277718;0.40939596;0.295302;0.3691275;0.46232507;0.46824542;0.42465016;0.37583894;0.3489933;0.37583894;0.45317546;0.46555436;0.4058127;0.37583894;0.38255033;0.38255033;0.48600647;0.4752422;0.41227126;0.38926175;0.4295302;0.38926175;0.4714747;0.46178687;0.46501616
RIGHT;0.0;0.75438595;0.9736842;0.82086957;0.5408696;0.23188406;0.07017544;1.0;0.98245615;0.57101446;0.14492753;0.4284058;0.33333334;0.9736842;0.78070176;0.50666666;0.0;0.6701449;0.49122807;0.8947368;0.5701754;0.4869565;0.03594203;0.89507246;0.68421054;0.7982456;0.2631579;0.44347826;0.17217392;1.0;0.7017544;0.4473684;0.33333334;0.49391305;0.35304347;0.99594206;0.69298244;0.25438598;0.23684211;0.5257971;0.52231884;0.89159423;0.48245615;0.21929824;0.28070176;0.5855073;0.5669565;0.82376814;0.35964912;0.1754386;0.28947368;0.5785507;0.57391304;0.76927537;0.30701753;0.21052632;0.36842105;0.59768116;0.5785507;0.7257971;0.36842105;0.18421052;0.35964912;0.5994203;0.6023188;0.7142029;0.39473686;0.24561404;0.31578946;0.5768116;0.5791304;0.7031884;0.4122807;0.16666667;0.30701753;0.6284058;0.6144928;0.65449274;0.42982456;0.25438598;0.30701753;0.60347825;0.6110145;0.6168116;0.3508772;0.25438598;0.31578946;0.63304347;0.6231884;0.5918841;0.2631579;0.31578946;0.34210527;0.70608693;0.6434783;0.5837681
RIGHT;0.31111112;1.0;0.32592592;0.7083631;0.056468908;0.89921373;0.35555556;0.62222224;0.11851852;0.34739098;0.18513224;0.96640456;0.42222223;0.6074074;0.08888889;0.25947106;0.30378842;0.93423873;0.4148148;0.4888889;0.1037037;0.18227305;0.45604002;1.0;0.34814814;0.44444445;0.17777778;0.0;0.47462472;0.95782703;0.33333334;0.11111111;0.27407408;0.231594;0.5475339;0.81844175;0.2962963;0.0;0.25925925;0.46819156;0.5625447;0.6933524;0.22962964;0.08888889;0.21481481;0.46676198;0.53323805;0.5954253;0.19259259;0.096296296;0.21481481;0.5353824;0.51608294;0.5153681;0.19259259;0.19259259;0.19259259;0.50750536;0.49320942;0.4817727;0.19259259;0.16296296;0.2;0.52537525;0.49249464;0.47676912;0.17037037;0.22962964;0.18518518;0.5189421;0.49035025;0.48320228;0.19259259;0.18518518;0.17777778;0.54896355;0.4996426;0.5110794;0.18518518;0.2074074;0.17777778;0.50822014;0.48892066;0.5260901;0.18518518;0.19259259;0.17037037;0.50321656;0.48820585;0.5518227;0.2074074;0.18518518;0.17037037;0.4839171;0.4974982;0.5589707
RIGHT;0.5;1.0;0.32;0.40577808;0.25869992;0.9455023;0.5133333;0.6;0.38666666;0.6165463;0.46027577;1.0;0.47333333;0.64666665;0.30666667;0.45370978;0.48653972;0.9317137;0.44;0.56666666;0.27333334;0.0;0.5016415;0.9021668;0.48;0.0;0.45333335;0.18713066;0.5725542;0.9474721;0.38;0.18;0.34;0.5889691;0.6099803;0.74983585;0.34666666;0.25333333;0.22;0.6572554;0.59422195;0.67761;0.33333334;0.22;0.29333332;0.5975049;0.58634275;0.6638214;0.32;0.26;0.26;0.61523306;0.5981615;0.6139199;0.32;0.28666666;0.28;0.60144454;0.6099803;0.6034143;0.30666667;0.28;0.28666666;0.6132633;0.6093237;0.59159553;0.29333332;0.3;0.30666667;0.59159553;0.6040709;0.58831257;0.28666666;0.28666666;0.28666666;0.6066973;0.6060407;0.5988181;0.28666666;0.28666666;0.29333332;0.5909389;0.6099803;0.6126067;0.29333332;0.29333332;0.28666666;0.5988181;0.6172029;0.6185161;0.28;0.3;0.3;0.5981615;0.6336179;0.6178595
RIGHT;0.0;0.58666664;0.75333333;0.91178113;0.6940257;0.3294249;0.19333333;0.68666667;0.88;0.7934115;0.46342826;0.4014517;0.32666665;0.99333334;0.8933333;0.7403685;0.18369626;0.52149636;0.49333334;1.0;0.75333333;0.4098269;0.0;0.8380793;0.76;0.84;0.53333336;0.5371301;0.1630374;1.0;0.73333335;0.45333335;0.38666666;0.44891122;0.3316583;0.9759911;0.62666667;0.42;0.24666667;0.5002792;0.46007818;0.91066444;0.5;0.16;0.32666665;0.5823562;0.57565606;0.78671134;0.42;0.25333333;0.34;0.61585706;0.59910667;0.67392516;0.40666667;0.37333333;0.36;0.54606366;0.61585706;0.6482412;0.37333333;0.37333333;0.36;0.63316584;0.6381909;0.6554997;0.37333333;0.31333333;0.38;0.66164154;0.6538247;0.6649916;0.38666666;0.34;0.34;0.63484085;0.6420994;0.6683417;0.36666667;0.34666666;0.34;0.64600784;0.6387493;0.6610832;0.36;0.35333332;0.34666666;0.6566164;0.64879954;0.6515913;0.34666666;0.34;0.34666666;0.64433277;0.6538247;0.64656615
RIGHT;0.26666668;0.28148147;0.0074074073;0.45925555;0.77816904;0.47434607;0.15555556;0.2962963;0.19259259;0.6051308;0.9129779;0.39688128;0.0;0.25185186;0.42962962;0.8239437;0.97032195;0.3138833;0.05185185;0.4888889;0.67407405;0.862173;1.0;0.22334003;0.18518518;0.4;0.9259259;0.49245474;0.8455734;0.23189135;0.2962963;0.4962963;1.0;0.6222334;0.67354125;0.21327968;0.4962963;0.76296294;0.9925926;0.5724346;0.35462776;0.39336017;0.7111111;0.8666667;0.93333334;0.42655936;0.1332998;0.55331993;0.88148147;0.7925926;0.78518516;0.53420526;0.038229376;0.64889336;0.88148147;0.85925925;0.4814815;0.556338;0.0;0.6780684;0.91851854;0.75555557;0.47407407;0.44114688;0.048792757;0.81187123;0.837037;0.44444445;0.36296296;0.471831;0.24647887;0.70372236;0.77037036;0.37777779;0.32592592;0.53521127;0.4024145;0.60663986;0.6296296;0.43703705;0.36296296;0.49245474;0.44818914;0.5412475;0.56296295;0.44444445;0.45925927;0.48440644;0.47786722;0.52012074;0.4962963;0.45925927;0.46666667;0.5165996;0.5055332;0.5140845
RIGHT;0.16551724;0.22758621;0.0;0.52165544;0.7805582;0.39076033;0.04137931;0.2;0.055172414;0.6515881;0.89701635;0.39268526;0.06896552;0.15862069;0.36551723;0.89076036;1.0;0.31135708;0.013793103;0.33793104;0.69655174;0.7786333;0.92252165;0.1159769;0.020689655;0.36551723;0.79310346;0.6564004;0.72810394;0.0346487;0.06896552;0.6275862;0.7517241;0.473051;0.41819057;0.05967276;0.2551724;0.5724138;1.0;0.45235804;0.23772858;0.09287777;0.32413793;0.8413793;0.7724138;0.15495668;0.01491819;0.23291627;0.50344825;0.6896552;0.49655172;0.25360924;0.0;0.48556304;0.6758621;0.80689657;0.537931;0.340231;0.021655438;0.6717998;0.7241379;0.5586207;0.57931036;0.37006736;0.13618864;0.7666025;0.69655174;0.56551725;0.33103448;0.3253128;0.18142445;0.79788256;0.6068966;0.27586207;0.29655173;0.36669874;0.26371512;0.7622714;0.53103447;0.3034483;0.3034483;0.35563043;0.2757459;0.65543795;0.4;0.18620689;0.28275862;0.35803658;0.34456208;0.5707411;0.3034483;0.2551724;0.33103448;0.40134746;0.38017324;0.5235804
RIGHT;0.1904762;0.19727892;0.0;0.24932563;0.57649326;0.49980733;0.06122449;0.17006803;0.006802721;0.4751445;0.78304434;0.41657034;0.006802721;0.0952381;0.3809524;0.7156069;0.99075145;0.30828518;0.0952381;0.2993197;0.34013605;0.84894025;1.0;0.15260115;0.08163265;0.50340134;0.5986394;0.8300578;0.88709056;0.03159923;0.07482993;0.4829932;0.9319728;0.68439305;0.6840077;0.07321773;0.25170067;0.7414966;1.0;0.45703277;0.37379575;0.1344894;0.2993197;0.89115644;0.85714287;0.2797688;0.07630058;0.2470135;0.4489796;0.81632656;0.9183673;0.1973025;0.0038535646;0.488632;0.6258503;0.7482993;0.89115644;0.36493257;0.0;0.6524085;0.82312924;0.9591837;0.5578231;0.3549133;0.056647398;0.6947977;0.82312924;0.52380955;0.5442177;0.3788054;0.15799615;0.76030827;0.85714287;0.4217687;0.3877551;0.36570328;0.26512524;0.73102117;0.7414966;0.34013605;0.3605442;0.3637765;0.31098264;0.6231214;0.6258503;0.2585034;0.2857143;0.3734104;0.35529864;0.5044316;0.5102041;0.21088435;0.36734694;0.3849711;0.39499035;0.40770712
RIGHT;0.33783785;0.6216216;0.0;0.8428228;0.92702484;0.4498797;0.2837838;0.4054054;0.27027026;0.8644747;1.0;0.46752205;0.2027027;0.47297296;0.45945945;0.43544507;0.872494;0.44105855;0.1891892;0.43243244;0.7837838;0.5068164;0.7882919;0.41619888;0.13513513;0.4864865;0.9054054;0.36407378;0.6327185;0.38492382;0.25675675;0.35135135;0.8513514;0.30392942;0.54290295;0.42902967;0.24324325;0.2972973;0.8918919;0.43143544;0.5846031;0.41218925;0.27027026;0.44594595;0.7432432;0.5084202;0.57097036;0.3448276;0.3108108;0.5945946;0.8513514;0.40096232;0.41860464;0.3384122;0.44594595;0.43243244;0.9459459;0.5204491;0.39214113;0.40737772;0.45945945;0.7027027;1.0;0.542101;0.28949478;0.37369686;0.5675676;0.7702703;0.7972973;0.45549318;0.072975144;0.42261428;0.7162162;0.6486486;0.7432432;0.45148355;0.0;0.53007215;0.7837838;0.44594595;0.44594595;0.4915798;0.070569366;0.58299917;0.7027027;0.5540541;0.22972973;0.4434643;0.12590216;0.52686447;0.6891892;0.3783784;0.2027027;0.4587009;0.22453889;0.5252606
RIGHT;0.123595506;0.5505618;1.0;0.58631414;0.41524106;0.31804043;0.13483146;0.5730337;0.7303371;0.4976672;0.09875583;0.5132193;0.3483146;0.6179775;0.8202247;0.67962676;0.10419907;0.64307934;0.42696628;0.6741573;0.64044946;0.4688958;0.0;0.8258165;0.5168539;0.66292137;0.24719101;0.537325;0.13374805;0.9774495;0.5280899;0.40449437;0.17977528;0.64696735;0.19751166;1.0;0.64044946;0.25842696;0.06741573;0.56842923;0.34059098;0.97511667;0.5280899;0.07865169;0.0;0.5762053;0.3919129;0.89891136;0.38202247;0.011235955;0.07865169;0.63374805;0.5046656;0.781493;0.31460676;0.033707865;0.06741573;0.60342145;0.60575426;0.67729396;0.21348314;0.033707865;0.13483146;0.64463454;0.655521;0.61275274;0.16853933;0.123595506;0.13483146;0.62519443;0.6547434;0.58242613;0.14606741;0.14606741;0.15730338;0.63063765;0.64463454;0.5769829;0.123595506;0.2247191;0.16853933;0.62363917;0.63141525;0.60031104;0.06741573;0.20224719;0.24719101;0.6539658;0.60730946;0.67651635;0.07865169;0.2247191;0.20224719;0.6687403;0.57465005;0.748056
RIGHT;0.39130434;0.7826087;0.19130434;0.28045157;0.14795008;0.31194296;0.6347826;0.90434784;0.2521739;0.14854427;0.29114676;0.50386214;0.7478261;1.0;0.22608696;0.14260249;0.41651812;0.8169935;0.8869565;0.6695652;0.37391305;0.03683898;0.5157457;1.0;0.71304345;0.27826086;0.42608696;0.0;0.57635176;0.9827689;0.53913045;0.31304348;0.42608696;0.07367796;0.5412953;0.8235294;0.32173914;0.0;0.51304346;0.29887107;0.46939987;0.63755196;0.20869565;0.008695652;0.47826087;0.19786096;0.30778372;0.41830066;0.2521739;0.060869563;0.4869565;0.13903743;0.1657754;0.26143792;0.5565217;0.13043478;0.5217391;0.19489008;0.13666072;0.19073084;0.6869565;0.16521738;0.62608695;0.26024956;0.13844326;0.11942959;0.66086954;0.33913043;0.49565217;0.24955437;0.10695187;0.07605466;0.6173913;0.35652173;0.45217392;0.275104;0.12715389;0.075460486;0.47826087;0.42608696;0.33913043;0.3060012;0.18597741;0.10338681;0.31304348;0.44347826;0.26956522;0.27866903;0.2073678;0.11645871;0.2521739;0.39130434;0.19130434;0.2020202;0.18775995;0.14854427