Lable,AccX1,AccY1,AccZ1,GyrX1,GyrY1,GyrZ1,AccX2,AccY2,AccZ2,GyrX2,GyrY2,GyrZ2,AccX3,AccY3,AccZ3,GyrX3,GyrY3,GyrZ3,AccX4,AccY4,AccZ4,GyrX4,GyrY4,GyrZ4,AccX5,AccY5,AccZ5,GyrX5,GyrY5,GyrZ5,AccX6,AccY6,AccZ6,GyrX6,GyrY6,GyrZ6,AccX7,AccY7,AccZ7,GyrX7,GyrY7,GyrZ7,AccX8,AccY8,AccZ8,GyrX8,GyrY8,GyrZ8,AccX9,AccY9,AccZ9,GyrX9,GyrY9,GyrZ9,AccX10,AccY10,AccZ10,GyrX10,GyrY10,GyrZ10,AccX11,AccY11,AccZ11,GyrX11,GyrY11,GyrZ11,AccX12,AccY12,AccZ12,GyrX12,GyrY12,GyrZ12,AccX13,AccY13,AccZ13,GyrX13,GyrY13,GyrZ13,AccX14,AccY14,AccZ14,GyrX14,GyrY14,GyrZ14,AccX15,AccY15,AccZ15,GyrX15,GyrY15,GyrZ15,AccX16,AccY16,AccZ16,GyrX16,GyrY16,GyrZ16UP,0.68093383,0.7237354,0.22957198,0.37238285,0.04785643,0.23529412,0.7470817,0.922179,0.15175097,0.40528414,0.3429711,0.35892323,0.7392996,0.94163424,0.20622568,0.21485543,0.5982054,0.47058824,0.74319065,1.0,0.28793773,0.17896311,0.8100698,0.6335992,0.68871593,0.8404669,0.44357976,0.12512463,0.9685942,0.79461616,0.6225681,0.6536965,0.53696495,0.121635094,1.0,0.9386839,0.5486381,0.42801556,0.6575875,0.054336987,0.9860419,0.96011966,0.47081712,0.24902724,0.7548638,0.07328016,0.8703888,0.89082754,0.4007782,0.031128405,0.91050583,0.18843469,0.6241276,0.62612164,0.42023346,0.0,0.91828793,0.27866402,0.29361916,0.33848456,0.5019455,0.18677042,0.83657587,0.46809572,0.16151546,0.11764706,0.56031126,0.35019454,0.7392996,0.6161516,0.070289135,0.025423728,0.6264591,0.56031126,0.6225681,0.6415753,0.029910268,0.0,0.6381323,0.6692607,0.47470817,0.5578265,0.113659024,0.11216351,0.6031128,0.7859922,0.4319066,0.5762712,0.29661018,0.22731805,0.57587546,0.7003891,0.46692607,0.49202392,0.3464606,0.33000997UP,0.7714286,0.8333333,0.5,0.29617664,0.4178783,0.44426495,0.73333335,0.81904763,0.552381,0.27625203,0.42380184,0.4367259,0.71428573,0.74285716,0.60952383,0.24555735,0.39149165,0.39364567,0.6761905,0.6857143,0.5761905,0.1825525,0.31771675,0.31340873,0.67142856,0.66190475,0.5285714,0.15885837,0.25686592,0.22024772,0.64285713,0.65238094,0.4857143,0.17070544,0.24394184,0.14378029,0.6142857,0.7619048,0.43809524,0.3123317,0.31825525,0.15131932,0.5952381,1.0,0.30952382,0.4340334,0.46742058,0.38664514,0.5809524,0.95238096,0.3809524,0.2353258,0.6698977,0.7329025,0.52380955,0.6571429,0.51428574,0.2864836,0.7829833,0.9434572,0.5285714,0.4857143,0.6238095,0.30533117,0.82337105,1.0,0.5809524,0.2904762,0.7,0.08185245,0.74151856,0.9499192,0.5809524,0.00952381,0.82857144,0.0,0.61120087,0.7329025,0.53809524,0.0,0.85238093,0.26117393,0.42703286,0.46203554,0.4857143,0.071428575,0.83809525,0.3828756,0.30963922,0.28432956,0.47619048,0.23333333,0.7714286,0.41303176,0.22563274,0.14431879UP,0.53968257,1.0,0.015873017,0.8790787,0.15355086,0.0,0.44444445,0.6825397,0.0,1.0,0.40307102,0.41458732,0.44444445,0.6825397,0.06349207,0.6756238,0.56238,0.32053742,0.3809524,0.61904764,0.20634921,0.6890595,0.6257198,0.7274472,0.33333334,0.23809524,0.46031746,0.88675624,0.7082534,0.67178506,0.31746033,0.52380955,0.44444445,0.66986567,0.59692895,0.5777351,0.3809524,0.44444445,0.50793654,0.3378119,0.53550863,0.6238004,0.36507937,0.3968254,0.44444445,0.45489442,0.53358924,0.58925146,0.36507937,0.3809524,0.3968254,0.38387716,0.5451056,0.57197696,0.36507937,0.36507937,0.3968254,0.4606526,0.56238,0.5681382,0.34920636,0.34920636,0.36507937,0.55086374,0.57581574,0.57389635,0.34920636,0.3809524,0.36507937,0.5815739,0.57389635,0.57581574,0.3809524,0.36507937,0.3809524,0.5796545,0.5777351,0.5777351,0.36507937,0.3809524,0.3809524,0.5642994,0.5700576,0.5834933,0.3809524,0.36507937,0.36507937,0.54894435,0.5681382,0.5796545,0.36507937,0.36507937,0.34920636,0.5642994,0.57197696,0.57581574UP,0.4387755,0.2414966,0.61904764,0.66729414,0.272,0.046588235,0.35034013,0.31632653,0.42517006,0.72988236,0.09647059,0.0,0.39455783,0.4931973,0.33673468,0.58447057,0.07058824,0.009411764,0.4489796,0.6802721,0.27891156,0.5872941,0.1797647,0.099764705,0.45918366,0.8707483,0.18707483,0.48329413,0.28376472,0.28894117,0.50340134,0.9557823,0.15306123,0.22211765,0.448,0.56094116,0.6394558,1.0,0.3197279,0.14164706,0.6969412,0.77082354,0.60544217,0.7789116,0.41156462,0.111058824,0.7647059,0.95529413,0.5578231,0.54761904,0.4931973,0.08705882,0.7054118,1.0,0.5408163,0.3537415,0.53061223,0.041882355,0.6409412,0.92188233,0.46258503,0.18707483,0.54761904,0.095529415,0.56282353,0.83435297,0.4047619,0.037414964,0.59183675,0.14164706,0.49882352,0.67247057,0.36734694,0.0,0.6020408,0.31294116,0.42682353,0.48,0.36394557,0.09863946,0.56122446,0.38870588,0.37176472,0.31905884,0.40136054,0.17687075,0.53741497,0.42164707,0.31529412,0.23623529,0.414966,0.25170067,0.5102041,0.50541174,0.28047058,0.12470588UP,0.6168224,0.8130841,0.31308413,0.25987408,0.36863193,0.32054952,0.6728972,0.8411215,0.30373833,0.4127075,0.50200343,0.39668003,0.7009346,1.0,0.20560747,0.44419003,0.6754436,0.60732687,0.635514,0.80841124,0.3317757,0.3440183,0.85975957,0.8042358,0.57009345,0.6869159,0.36915886,0.28162566,0.930166,0.93989694,0.55140185,0.48598132,0.50934577,0.20606755,0.9358901,1.0,0.44859812,0.2990654,0.57009345,0.03720664,0.8546079,0.95592445,0.36915886,0.0,0.7990654,0.0,0.7258157,0.7853463,0.41121495,0.06542056,0.75233644,0.10761305,0.5163137,0.62564397,0.39252338,0.06542056,0.78504676,0.2730395,0.36462507,0.476245,0.39719626,0.023364486,0.7383177,0.49284488,0.2381225,0.39210075,0.41121495,0.21495327,0.6588785,0.66742986,0.22037779,0.27590156,0.43457943,0.40186915,0.54672897,0.75386375,0.22323984,0.18832284,0.42523363,0.5,0.50934577,0.7578706,0.22610189,0.1219233,0.46728972,0.60747665,0.41121495,0.5872925,0.24441901,0.14481969,0.47663552,0.7616823,0.37850466,0.5060103,0.3314253,0.21465369UP,0.70731705,0.5609756,0.6097561,0.3508772,0.36842105,0.42424244,0.58536583,1.0,0.58536583,0.4800638,0.3524721,0.26794258,0.63414633,0.68292683,0.68292683,0.34290272,0.2982456,0.33811802,0.73170733,0.73170733,0.68292683,0.28389156,0.32216907,0.28867623,0.70731705,0.6585366,0.68292683,0.25039873,0.32057416,0.31738436,0.75609756,0.73170733,0.5609756,0.26953748,0.3094099,0.32216907,0.68292683,0.63414633,0.63414633,0.28708133,0.3030303,0.37799042,0.70731705,0.70731705,0.63414633,0.2647528,0.3524721,0.41148326,0.6097561,0.6585366,0.6585366,0.097288676,0.36044657,0.41467306,0.63414633,0.6097561,0.68292683,0.0,0.37001595,0.07814992,0.7804878,0.63414633,0.5609756,0.36842105,0.40350878,0.20733653,0.68292683,0.7804878,0.36585367,0.3141946,0.3875598,0.24720894,0.6097561,0.80487806,0.31707317,0.11323764,0.28867623,0.32535884,0.75609756,0.4878049,0.36585367,0.3859649,0.19138756,0.5151515,0.4878049,0.34146342,0.07317073,0.23125997,0.1275917,1.0,0.0,0.0,0.4390244,0.15311004,0.18660288,0.94896334UP,0.502809,0.6741573,0.4494382,0.38073394,0.28309307,0.048820447,0.4494382,0.76404494,0.42977527,0.36500657,0.2791612,0.19266056,0.5533708,0.8455056,0.5224719,0.36664483,0.32241154,0.45838794,0.60955054,1.0,0.44662923,0.26277852,0.3574705,0.81094366,0.6207865,0.78370786,0.497191,0.0022935779,0.46461338,0.97673655,0.5477528,0.49438202,0.5168539,0.155308,0.49868938,1.0,0.53089887,0.36235955,0.5,0.08093054,0.43250328,0.93479687,0.48876405,0.123595506,0.5505618,0.0,0.36435124,0.8469856,0.43820226,0.0,0.5898876,0.061926607,0.31651375,0.67988205,0.39325842,0.050561797,0.5758427,0.38564876,0.29226735,0.38335517,0.3764045,0.24438202,0.5252809,0.4344692,0.27293578,0.19528179,0.3735955,0.41573033,0.505618,0.5190039,0.2676933,0.110747054,0.41853932,0.56179774,0.44101125,0.4587156,0.28505898,0.07306684,0.47191012,0.5983146,0.4213483,0.46952817,0.33322412,0.049803406,0.505618,0.5758427,0.4241573,0.3525557,0.31585845,0.10419397,0.50842696,0.57865167,0.44382024,0.37876803,0.3099607,0.16349934UP,0.74568963,0.91810346,0.21551724,0.2728273,0.28547856,0.3091309,0.79741377,0.92241377,0.2801724,0.25412542,0.42574257,0.3041804,0.76724136,1.0,0.29310346,0.2970297,0.54730475,0.41364136,0.8362069,1.0,0.34051725,0.21397139,0.6809681,0.6320132,0.67672414,0.7887931,0.39655173,0.051155116,0.8531353,0.90539056,0.6508621,0.5,0.6163793,0.0,0.98349833,0.99559957,0.64224136,0.35344827,0.6939655,0.13036303,0.97744775,1.0,0.5862069,0.14655173,0.8534483,0.12706271,0.8883388,0.8360836,0.42672414,0.0,0.9310345,0.24807481,0.62431246,0.59515953,0.54310346,0.1336207,0.92672414,0.4147415,0.3630363,0.31683168,0.54310346,0.30603448,0.75,0.5445545,0.23322332,0.19471948,0.50431037,0.44827586,0.62931037,0.3888889,0.19966997,0.17546755,0.4827586,0.4698276,0.57758623,0.49724972,0.22607261,0.2040704,0.47844827,0.57758623,0.5258621,0.49394938,0.32013202,0.23487349,0.43534482,0.6034483,0.44396552,0.45049506,0.33608362,0.29757977,0.43965518,0.5905172,0.48706895,0.41639164,0.34983498,0.36963695UP,0.40092167,0.33640552,0.6543779,0.6534974,0.0,0.02849741,0.4608295,0.49769586,0.50230414,0.6651554,0.0012953368,0.12305699,0.62211984,0.640553,0.41935483,0.5362694,0.10168394,0.24417098,0.7327189,0.7741935,0.35023043,0.4507772,0.24158031,0.37370467,0.84792626,0.97235024,0.24884793,0.20336787,0.36204663,0.4650259,0.8156682,0.9447005,0.2718894,0.16126943,0.45595855,0.4915803,0.8248848,0.95852536,0.30414745,0.22474094,0.5731865,0.5369171,0.77880186,1.0,0.2857143,0.103626944,0.748057,0.74935234,0.7050691,0.7096774,0.3824885,0.08095855,0.91709846,0.87759066,0.59447,0.50691247,0.5253456,0.19300517,1.0,0.9138601,0.6082949,0.41474655,0.5437788,0.06411917,0.9967617,0.9488342,0.516129,0.20276497,0.7281106,0.0058290157,0.94948184,0.8503886,0.40092167,0.0,0.875576,0.15673575,0.7376943,0.59067357,0.3548387,0.17050691,0.78341013,0.26943004,0.4799223,0.48510364,0.3548387,0.2580645,0.71428573,0.29145077,0.33937824,0.4533679,0.29493088,0.23963134,0.7096774,0.41774613,0.26360103,0.43782383UP,0.0,0.42168674,0.4698795,0.84287614,0.07456724,0.4460719,0.15662651,0.5060241,0.45783132,0.94141144,0.10252996,0.18641812,0.31325302,0.78313255,0.28915662,0.8348868,0.17310253,0.08255659,0.4698795,0.97590363,0.21686748,0.747004,0.26764315,0.061251663,0.55421686,0.939759,0.33734939,1.0,0.3408788,0.05725699,0.61445785,0.8915663,0.45783132,0.7962716,0.38082558,0.13715047,0.56626505,1.0,0.43373495,0.5818908,0.3954727,0.30093208,0.5421687,0.79518074,0.5421687,0.4966711,0.34886816,0.39147803,0.55421686,0.73493975,0.5903614,0.5565912,0.34753662,0.35818908,0.55421686,0.67469877,0.55421686,0.43142477,0.3382157,0.3541944,0.5903614,0.6987952,0.5301205,0.424767,0.35019973,0.3408788,0.61445785,0.67469877,0.5301205,0.42343542,0.38748336,0.3355526,0.6385542,0.7108434,0.5180723,0.33155793,0.41944075,0.34354195,0.62650603,0.6626506,0.5421687,0.0,0.42609853,0.38482025,0.6385542,0.5180723,0.5903614,0.08388815,0.45938748,0.38748336,0.6626506,0.5421687,0.56626505,0.41944075,0.5419441,0.4620506UP,0.44329897,0.2611684,0.4226804,0.30775046,0.34064272,0.12400756,0.41237113,0.21649484,0.41580757,0.45179585,0.39092627,0.03705104,0.39862543,0.25429553,0.39175257,0.46767485,0.41550094,0.0,0.4329897,0.37457046,0.39518902,0.46729678,0.4226843,0.0030245746,0.45017183,0.49140894,0.38831615,0.46086955,0.41361058,0.062381852,0.5292096,0.6323024,0.4604811,0.5482042,0.38601133,0.17807183,0.58762884,0.8453608,0.46391752,0.4695652,0.29603025,0.36862004,0.6426117,1.0,0.5120275,0.31455576,0.24763705,0.5508507,0.6185567,0.8969072,0.5120275,0.22079395,0.25671077,0.74858224,0.6151203,0.76632303,0.5154639,0.21890359,0.28015122,0.91115314,0.5670103,0.53608245,0.46735394,0.10396975,0.3043478,1.0,0.54295534,0.21993127,0.47766322,0.14064272,0.35236296,0.94291115,0.43986255,0.0068728523,0.48453608,0.30699432,0.40604916,0.81172025,0.37457046,0.0,0.45017183,0.30623817,0.37807184,0.610586,0.3539519,0.07560138,0.46735394,0.34858224,0.342155,0.40075615,0.30927834,0.1580756,0.48453608,0.36559546,0.32476372,0.24536861UP,0.07692308,0.9230769,0.53846157,0.2427481,0.37709925,0.0122137405,0.20512821,0.82051283,0.5641026,0.7374046,0.41374046,0.0,0.25641027,0.9230769,0.51282054,1.0,0.42290077,0.0045801527,0.35897437,1.0,0.3846154,0.66412216,0.40458015,0.0870229,0.43589744,0.74358976,0.41025642,0.72671753,0.4427481,0.23664123,0.35897437,0.974359,0.3846154,0.73129773,0.49007633,0.33435115,0.30769232,0.7692308,0.41025642,0.2687023,0.45801526,0.32824427,0.30769232,0.61538464,0.46153846,0.06870229,0.44885495,0.30687022,0.35897437,0.51282054,0.4871795,0.13129771,0.42442748,0.2870229,0.43589744,0.46153846,0.53846157,0.3389313,0.45038167,0.3129771,0.46153846,0.46153846,0.4871795,0.52519083,0.48854962,0.39694658,0.41025642,0.51282054,0.43589744,0.5068702,0.47480917,0.47633588,0.35897437,0.0,0.53846157,0.8229008,0.48854962,0.49923664,0.51282054,0.53846157,0.41025642,0.51755726,0.49770993,0.3832061,0.4871795,0.025641026,0.74358976,0.6213741,0.46564886,0.45343512,0.41025642,0.46153846,0.5641026,0.5114504,0.36641222,0.4519084UP,0.97315437,0.76510066,0.040268455,0.07158671,0.25608855,0.26568267,1.0,0.88590604,0.0,0.0398524,0.58376384,0.25608855,0.98657715,0.82550335,0.22818792,0.19483395,0.8073801,0.35202953,0.82550335,0.7315436,0.3557047,0.0,0.9453875,0.4686347,0.7986577,0.4966443,0.68456376,0.021402214,1.0,0.52398527,0.590604,0.4966443,0.62416106,0.11439114,0.8420664,0.5409594,0.44966444,0.26174498,0.90604025,0.037638377,0.61254615,0.46125463,0.39597315,0.23489933,0.8724832,0.11734317,0.4118081,0.37712178,0.42281878,0.32214764,0.82550335,0.24132842,0.2494465,0.29298893,0.38926175,0.36241612,0.62416106,0.24501845,0.17564575,0.27084872,0.37583894,0.295302,0.7114094,0.24723247,0.18302584,0.25608855,0.40939596,0.33557048,0.6375839,0.32472324,0.17638376,0.24870849,0.4295302,0.34228188,0.58389264,0.31217712,0.16678967,0.22878228,0.40268457,0.40939596,0.5100671,0.30774906,0.16974169,0.21845019,0.38926175,0.40268457,0.4966443,0.29298893,0.1896679,0.21328413,0.4161074,0.46308726,0.4161074,0.21697417,0.22804429,0.22656827UP,0.87341774,0.9746835,0.044303797,0.3241418,0.5222285,0.52166575,0.8670886,0.9556962,0.0,0.21271807,0.70118177,0.59426,0.75949365,0.9050633,0.10759494,0.13224536,0.8778841,0.6871131,0.73417723,0.79746836,0.35443038,0.05908835,1.0,0.7625211,0.62025315,0.49367088,0.5822785,0.0,0.995498,0.776027,0.53797466,0.34810126,0.7721519,0.16375914,0.99099606,0.7636466,0.43670887,0.18354431,0.87341774,0.2751829,0.9538548,0.73157007,0.29746836,0.1329114,1.0,0.38660663,0.78728193,0.6302757,0.23417722,0.10759494,0.9936709,0.38323015,0.5756894,0.5419246,0.20886075,0.10759494,0.84810126,0.42656162,0.4153067,0.4580754,0.2278481,0.14556962,0.79746836,0.49015194,0.35115364,0.33539674,0.28481013,0.30379745,0.65822786,0.52898145,0.28587508,0.3021947,0.33544305,0.43037975,0.443038,0.44288126,0.22341025,0.35509285,0.4177215,0.38607594,0.47468355,0.5104108,0.2656162,0.3967361,0.4177215,0.5822785,0.39240506,0.59482276,0.2920653,0.41193023,0.47468355,0.62658226,0.35443038,0.5154755,0.26842993,0.48902646UP,0.88461536,0.8269231,0.16025642,0.0,0.09813665,0.09751553,1.0,0.9358974,0.115384616,0.0,0.26024845,0.124223605,1.0,0.89102566,0.25,0.11055901,0.53664595,0.2720497,0.89102566,0.82051283,0.25,0.05031056,0.8099379,0.5099379,0.75,0.63461536,0.49358973,0.34968945,0.9645963,0.7236025,0.67948717,0.57051283,0.5641026,0.13291925,1.0,0.8341615,0.53205127,0.25641027,0.7948718,0.011801242,0.8801242,0.7906832,0.3974359,0.070512824,0.78205127,0.07018633,0.68757766,0.6198758,0.32692307,0.0,0.92948717,0.30931678,0.47888198,0.4347826,0.23717949,0.13461539,0.6923077,0.073913045,0.28447205,0.31614906,0.21794872,0.10897436,0.6858974,0.20931678,0.23167703,0.2621118,0.16025642,0.20512821,0.5897436,0.2664596,0.24037267,0.2341615,0.10897436,0.2628205,0.50641024,0.10745341,0.1552795,0.19378883,0.15384616,0.33974358,0.42948717,0.13416149,0.11242236,0.20931678,0.26923078,0.32692307,0.48076922,0.3409938,0.13354038,0.2590062,0.30769232,0.525641,0.40384614,0.3795031,0.06832298,0.25465837UP,0.8716577,0.88235295,0.36363637,0.32549942,0.3037603,0.4189189,0.8716577,0.9037433,0.24064171,0.26498237,0.36016452,0.43654525,0.85561496,0.9946524,0.26737967,0.3078731,0.4864865,0.52467686,0.87700534,1.0,0.26737967,0.26321974,0.7103408,0.7173913,0.77540106,0.88235295,0.3262032,0.0,0.8560517,0.8777908,0.7058824,0.61497325,0.48128343,0.09283196,0.95652175,0.97121036,0.6363636,0.4171123,0.64705884,0.11515864,1.0,0.980611,0.54545456,0.18181819,0.7433155,0.1786134,0.95005876,0.90188015,0.3262032,0.0855615,0.79679143,0.16509989,0.72032905,0.69976497,0.27272728,0.0,0.85026735,0.36603996,0.51116335,0.5123384,0.2620321,0.122994654,0.684492,0.3149236,0.36897767,0.4212691,0.24064171,0.20320855,0.6684492,0.43419507,0.33372504,0.3413631,0.28342247,0.315508,0.62566847,0.44359577,0.30199766,0.2920094,0.3262032,0.3957219,0.56149733,0.54406583,0.29612222,0.2826087,0.3529412,0.54545456,0.5080214,0.64336073,0.273208,0.2467685,0.43850267,0.62032086,0.47593582,0.57696825,0.24853113,0.21856639UP,0.74349445,0.7992565,0.28996283,0.16322787,0.27372766,0.2856488,0.71375465,0.84386617,0.28996283,0.24163228,0.40073362,0.30307198,0.72490704,0.9219331,0.30855018,0.14580467,0.49839523,0.3498395,0.66171,1.0,0.29739776,0.07381935,0.6607061,0.57083905,0.60966545,0.7992565,0.3977695,0.11095828,0.8101788,0.8766621,0.5724907,0.58364314,0.49814126,0.07290234,0.8289775,1.0,0.5464684,0.40892193,0.58364314,0.016964694,0.8005502,0.98395234,0.42007434,0.16356878,0.6951673,0.15038973,0.7973407,0.93351674,0.33828998,0.0,0.78066915,0.24254929,0.65566254,0.6084365,0.267658,0.05204461,0.7732342,0.261348,0.4176983,0.31545162,0.21933086,0.20446096,0.67286247,0.3374599,0.30261347,0.22512609,0.2267658,0.29739776,0.6356877,0.36130217,0.22466758,0.20357634,0.3494424,0.4275093,0.6022305,0.31361762,0.12654746,0.121045396,0.43866172,0.49070632,0.5576208,0.36359468,0.06510775,0.11233379,0.55390334,0.5650558,0.5018587,0.49747822,0.06648327,0.05823017,0.6319703,0.6245353,0.47583643,0.48784962,0.062356718,0.0DOWN,0.10326087,0.26630434,0.5543478,0.569001,0.89649844,0.77600414,0.10326087,0.33152175,0.6630435,0.7476828,0.97425336,0.73223484,0.038043477,0.4076087,0.7717391,0.70957774,0.892379,0.6096807,0.0,0.4402174,0.6304348,0.815654,0.5983522,0.44129762,0.17391305,0.7663044,0.6793478,0.3506694,0.2554068,0.44902164,0.6195652,0.2228261,0.7717391,1.0,0.36199793,0.3877446,0.5923913,0.6793478,0.4456522,0.5046344,0.14212152,0.32131824,0.7336956,0.5597826,0.41847825,0.4376931,0.0,0.31977344,0.8043478,0.6630435,0.38586956,0.41555098,0.107106075,0.3053553,0.82608694,0.47826087,0.4021739,0.861483,0.44902164,0.26158598,0.45652175,1.0,0.33152175,0.14160658,0.30432543,0.31977344,0.58152175,0.4728261,0.6032609,0.54479915,0.43666324,0.4176107,0.5923913,0.54891306,0.5652174,0.67456234,0.5746653,0.45108137,0.6576087,0.5217391,0.5706522,0.6019567,0.584449,0.5545829,0.70108694,0.52717394,0.54347825,0.4783728,0.6019567,0.61946446,0.73913044,0.45108697,0.59782606,0.5221421,0.6277034,0.64675593DOWN,0.79,1.0,0.705,0.03183183,0.24564564,0.3093093,0.745,0.765,0.695,0.011411412,0.25945947,0.32852852,0.685,0.79,0.635,0.0,0.23603603,0.3123123,0.735,0.76,0.66,0.08288288,0.22102103,0.26246247,0.75,0.72,0.705,0.025225226,0.19159159,0.209009,0.72,0.745,0.62,0.097297296,0.17117117,0.21921922,0.735,0.715,0.63,0.12912913,0.15675676,0.21381381,0.74,0.69,0.59,0.08348348,0.15075076,0.2042042,0.715,0.685,0.585,0.12972973,0.18678679,0.1933934,0.695,0.68,0.525,0.10810811,0.23423423,0.21201201,0.635,0.69,0.495,0.045645647,0.3039039,0.24444444,0.585,0.7,0.445,0.035435434,0.47027028,0.32792792,0.465,0.59,0.53,0.03003003,0.7675676,0.4858859,0.225,0.47,0.645,0.054654654,0.9951952,0.48768768,0.0,0.335,0.775,0.34654656,1.0,0.36336336,0.015,0.51,0.855,0.22222222,0.6858859,0.042042043DOWN,0.0,0.6164383,1.0,0.80544746,0.49092087,0.5090791,0.5684931,0.5479452,0.8561644,0.7996109,0.068741895,0.5875486,0.9041096,0.8356164,0.65068495,0.71011674,0.0,0.69455254,0.98630136,0.5410959,0.5068493,0.7996109,0.2237354,1.0,0.9794521,0.6232877,0.3219178,0.9779507,0.4481193,0.93450063,0.8835617,0.45890412,0.28767124,0.9773022,0.5927367,0.8638132,0.65068495,0.69863015,0.33561644,0.9293126,0.74254215,0.75745785,0.65068495,0.5958904,0.45890412,0.82101166,0.8067445,0.74902725,0.58219177,0.6438356,0.55479455,0.92671853,0.8644617,0.75162125,0.5890411,0.63013697,0.65753424,0.93385214,0.886511,0.7522698,0.60273975,0.5958904,0.70547944,0.9675746,0.8949416,0.77237356,0.60958904,0.5890411,0.6712329,0.95525295,0.83657587,0.78988326,0.63013697,0.58219177,0.65068495,0.8891051,0.77172506,0.809987,0.6712329,0.55479455,0.6369863,0.846952,0.7626459,0.8223087,0.6849315,0.60273975,0.6232877,0.8009079,0.7866407,0.8385214,0.6438356,0.53424656,0.67808217,0.7632944,0.7613489,0.82036316DOWN,1.0,0.46551725,0.29310346,0.5,0.89285713,0.64540815,0.9310345,0.46551725,0.41379312,0.54591835,0.9438776,0.79846936,0.70689654,0.4827586,0.3448276,0.64540815,0.8903061,0.8852041,0.44827586,0.5344828,0.1724138,0.622449,0.72959185,1.0,0.20689656,0.4827586,0.12068965,0.48214287,0.61734694,0.82653064,0.18965517,0.5689655,0.03448276,0.4387755,0.44642857,0.7372449,0.2413793,0.62068963,0.0,0.0867347,0.3469388,0.5867347,0.3275862,0.51724136,0.0,0.0,0.38265306,0.4515306,0.41379312,0.43103448,0.18965517,0.091836736,0.49744898,0.2755102,0.39655173,0.46551725,0.13793103,0.073979594,0.502551,0.30612245,0.37931034,0.41379312,0.1724138,0.017857144,0.4719388,0.2984694,0.36206895,0.36206895,0.13793103,0.16071428,0.47959185,0.28316328,0.3275862,0.31034482,0.1724138,0.15306123,0.4872449,0.2984694,0.3275862,0.3275862,0.13793103,0.15306123,0.48214287,0.30612245,0.29310346,0.37931034,0.10344828,0.21938775,0.46938777,0.3494898,0.2413793,0.31034482,0.12068965,0.2755102,0.4515306,0.41836736DOWN,0.019379845,0.37209302,0.503876,0.53408056,0.9630415,0.6701,0.0,0.23255815,0.6356589,0.7246289,1.0,0.5789155,0.054263566,0.64341086,0.6744186,0.56043625,0.73189944,0.4462284,0.13953489,0.4108527,0.89534885,0.5310512,0.51802486,0.39866707,0.5736434,0.5736434,1.0,0.58043015,0.33898818,0.28445926,0.7403101,0.7131783,0.6782946,0.5310512,0.094516814,0.33141473,0.75581396,0.71705425,0.5,0.30748257,0.0,0.44168434,0.76744187,0.3372093,0.45736435,0.5059073,0.1817631,0.54195696,0.75581396,0.6511628,0.25968993,0.5561951,0.29869735,0.52681005,0.503876,0.57751936,0.14728682,0.44501665,0.35140866,0.5998182,0.5387597,0.5,0.45736435,0.45592245,0.4650106,0.5358982,0.54651165,0.5542636,0.5426357,0.47864282,0.48348984,0.47106937,0.5503876,0.503876,0.60465115,0.5889124,0.52347773,0.46228415,0.5542636,0.51937985,0.57751936,0.5649803,0.5395335,0.47379583,0.5813953,0.47674417,0.6511628,0.62556803,0.56376857,0.47500756,0.56589144,0.46124032,0.6356589,0.66767645,0.5480158,0.502575DOWN,0.2035928,0.4011976,0.8143712,0.44892812,1.0,0.79066837,0.15568863,0.37125748,1.0,0.62358135,0.98045397,0.69482976,0.0,0.3473054,0.994012,0.67969733,0.84741485,0.63556117,0.023952097,0.502994,0.8203593,0.5788146,0.6431274,0.42433795,0.1736527,0.61077845,0.8742515,0.6261034,0.44262296,0.3776797,0.46706587,0.6047904,0.8023952,0.6172762,0.25283733,0.34678435,0.6886228,0.6407186,0.6407186,0.5472888,0.06557377,0.32723832,0.88622755,0.74251497,0.50898206,0.52332914,0.0,0.32345524,0.994012,0.6886228,0.56886226,0.58322823,0.046027742,0.4558638,0.9161677,0.6826347,0.4251497,0.51954603,0.115384616,0.4262295,0.8143712,0.71257484,0.5449102,0.6229508,0.27616647,0.39848676,0.66467065,0.7305389,0.53892213,0.6172762,0.36380833,0.41740227,0.6706587,0.70658684,0.5928144,0.6506936,0.445145,0.4293821,0.66467065,0.7185629,0.6287425,0.6406053,0.5163934,0.46153846,0.6886228,0.6407186,0.66467065,0.55296344,0.57377046,0.48360655,0.70658684,0.56287426,0.7724551,0.58575034,0.59142494,0.481715DOWN,0.15,0.3625,0.59375,0.71819264,0.7015458,1.0,0.08125,0.28125,0.6375,0.81391203,0.7580262,0.9363853,0.0,0.3625,0.61875,0.8103448,0.8061831,0.8543401,0.00625,0.45625,0.7,0.7574316,0.8133175,0.7122473,0.11875,0.3625,0.76875,0.66587394,0.76813316,0.69976217,0.34375,0.4,0.73125,0.51664686,0.67181927,0.47324613,0.75625,0.55,0.68125,0.63614744,0.59453034,0.29548156,0.91875,0.64375,0.7125,0.7015458,0.5184304,0.14209275,0.96875,0.73125,0.59375,0.7098692,0.4351962,0.13793103,0.94375,0.9625,0.5125,0.72235435,0.43995243,0.0,0.8375,1.0,0.575,0.7627824,0.51902497,0.13793103,0.5625,0.94375,0.6125,0.6848989,0.5755054,0.29310346,0.55,0.8125,0.59375,0.6171225,0.58085614,0.48097503,0.65625,0.75625,0.63125,0.64268726,0.6432818,0.617717,0.69375,0.6625,0.64375,0.63376933,0.6872771,0.74970275,0.71875,0.6125,0.65,0.6599287,0.70214033,0.83650416DOWN,0.47619048,0.984127,0.25396827,0.5180864,0.9789965,1.0,0.47619048,1.0,0.25396827,0.23453909,0.97549593,0.8623104,0.46031746,1.0,0.25396827,0.40023336,0.9976663,0.831972,0.26984128,0.9047619,0.42857143,0.0,0.8856476,0.80630106,0.22222222,0.25396827,0.26984128,0.5950992,0.92415404,0.8459743,0.22222222,0.3968254,0.17460318,0.5530922,0.91131854,0.873979,0.20634921,0.15873016,0.11111111,0.7444574,0.9299883,0.85647607,0.1904762,0.20634921,0.14285715,0.63827306,0.9124854,0.84014004,0.17460318,0.1904762,0.12698413,0.848308,0.9346558,0.8226371,0.14285715,0.15873016,0.17460318,0.73745626,0.9031505,0.8296383,0.11111111,0.23809524,0.15873016,0.9043174,0.92882144,0.8051342,0.06349207,0.26984128,0.23809524,0.8004667,0.8891482,0.8354726,0.0,0.3015873,0.25396827,0.82613766,0.8459743,0.8669778,0.06349207,0.25396827,0.26984128,0.8518086,0.8343057,0.89264876,0.06349207,0.23809524,0.1904762,0.8191365,0.8156359,0.92298716,0.12698413,0.14285715,0.17460318,0.85530925,0.8179697,0.92415404DOWN,0.096551724,0.6551724,0.76551723,0.5260223,1.0,0.21561338,0.027586207,0.73103446,0.91034484,0.6951673,0.95817846,0.25,0.0,0.8689655,0.8965517,0.5548327,0.7379182,0.36431226,0.15862069,0.87586206,0.87586206,0.69795537,0.50650555,0.47862452,0.537931,0.7586207,0.8551724,0.2704461,0.2788104,0.6459108,0.7241379,0.7517241,0.6689655,0.4674721,0.14684016,0.7462825,0.8689655,0.6,0.6,0.2472119,0.0,0.8578067,1.0,0.5241379,0.62068963,0.44981414,0.062267657,0.8782528,0.97931033,0.44827586,0.5724138,0.32342008,0.08550186,0.88475835,0.8413793,0.56551725,0.537931,0.8327138,0.21747212,0.71933085,0.7862069,0.537931,0.5862069,0.5213755,0.26301116,0.66449815,0.7172414,0.66206896,0.56551725,0.6914498,0.4005576,0.56784385,0.7172414,0.7034483,0.6689655,0.464684,0.419145,0.51022303,0.7034483,0.74482757,0.7586207,0.3605948,0.4507435,0.464684,0.6551724,0.7172414,0.8,0.08828996,0.36152416,0.44144982,0.7172414,0.5586207,0.9034483,0.12360595,0.30855018,0.31319702DOWN,0.70238096,0.0,0.39285713,1.0,0.32788295,0.14888124,0.77380955,0.3452381,0.30952382,0.8683305,0.43803787,0.302926,0.95238096,0.41666666,0.26190478,0.3597246,0.4870912,0.31841654,1.0,0.30952382,0.42857143,0.7151463,0.601549,0.44492254,0.96428573,0.6785714,0.4642857,0.5043029,0.5697074,0.5025818,0.9404762,0.48809522,0.5119048,0.17555939,0.47848538,0.48364887,0.88095236,0.45238096,0.53571427,0.36402753,0.4759036,0.4595525,0.79761904,0.54761904,0.48809522,0.35197935,0.43803787,0.4655766,0.72619045,0.5595238,0.41666666,0.35111877,0.42168674,0.47504303,0.6785714,0.5,0.41666666,0.41566265,0.43201378,0.46127367,0.63095236,0.54761904,0.44047618,0.41480207,0.43803787,0.4466437,0.53571427,0.5119048,0.3809524,0.33304647,0.4182444,0.45783132,0.5833333,0.47619048,0.41666666,0.34423408,0.4251291,0.43975905,0.53571427,0.4642857,0.4047619,0.28313252,0.40877798,0.40533563,0.5,0.5,0.30952382,0.0,0.33821,0.35025817,0.5833333,0.16666667,0.44047618,0.27538726,0.39328745,0.35111877DOWN,0.13422818,0.4899329,0.59731543,0.6571602,0.9714806,0.7487864,0.013422819,0.48322147,0.7114094,0.66019416,1.0,0.64623785,0.046979867,0.45637584,0.96644294,0.6389563,0.91504854,0.55703884,0.0,0.6442953,0.8187919,0.50424755,0.6923544,0.47512135,0.23489933,0.59731543,0.86577183,0.4508495,0.44478154,0.3276699,0.557047,0.80536914,0.75838923,0.25364077,0.15898058,0.23847087,0.7718121,0.7718121,0.59731543,0.16444175,0.0,0.3118932,0.88590604,0.72483224,0.36241612,0.33737865,0.0018203884,0.36953884,1.0,0.6577181,0.46308726,0.48847088,0.1407767,0.38046116,0.84563756,0.7315436,0.37583894,0.5157767,0.27609223,0.46116504,0.7181208,0.6510067,0.44966444,0.59890777,0.4520631,0.5048544,0.6375839,0.67114097,0.5503356,0.6626214,0.53640777,0.4811893,0.60402685,0.7315436,0.590604,0.61771846,0.559466,0.46662623,0.62416106,0.66442955,0.6577181,0.58980584,0.5406553,0.49575242,0.62416106,0.6510067,0.6375839,0.5236651,0.5036408,0.5206311,0.6442953,0.590604,0.6577181,0.5546116,0.51638347,0.526699DOWN,1.0,0.6626506,0.16867469,0.6212938,0.5795148,0.78032345,0.9518072,0.62650603,0.15662651,0.61455524,0.76280326,0.91778976,0.8072289,0.74698794,0.10843374,0.4393531,0.77088946,1.0,0.73493975,0.6626506,0.24096386,0.33153638,0.78571427,0.95013475,0.5301205,0.57831323,0.21686748,0.09703504,0.6940701,0.8032345,0.4698795,0.44578314,0.21686748,0.0,0.59973043,0.6320755,0.37349397,0.36144578,0.20481928,0.045822103,0.55390835,0.56873316,0.38554215,0.28915662,0.19277108,0.053908356,0.52560645,0.47843665,0.3493976,0.26506025,0.12048193,0.08490566,0.55121297,0.47708896,0.33734939,0.20481928,0.12048193,0.2708895,0.66172504,0.5431267,0.28915662,0.16867469,0.18072289,0.4407008,0.7560647,0.6361186,0.21686748,0.13253012,0.38554215,0.6374663,0.76280326,0.5983828,0.10843374,0.10843374,0.45783132,0.40161726,0.60107815,0.5889488,0.10843374,0.0,0.45783132,0.4393531,0.4393531,0.4838275,0.13253012,0.0,0.40963855,0.5377358,0.32614556,0.37601078,0.13253012,0.13253012,0.26506025,0.4245283,0.254717,0.3167116DOWN,0.12903225,0.5860215,0.60215056,0.71682847,0.9822006,0.68985975,0.059139784,0.6182796,0.79569894,0.6785329,1.0,0.56903994,0.0,0.48387095,0.9032258,0.50323623,0.85005397,0.48004314,0.13440861,0.5591398,0.8924731,0.4768069,0.5604099,0.32470334,0.46774194,0.75268817,0.8333333,0.3716289,0.30151024,0.21682848,0.6935484,0.7580645,0.8172043,0.22006473,0.13754046,0.25512406,0.87096775,0.70430106,0.6344086,0.2588997,0.033980582,0.36785328,1.0,0.72043014,0.53763443,0.39590076,0.0,0.35976267,0.9892473,0.6989247,0.48924732,0.4142395,0.03883495,0.3576052,0.8924731,0.68817204,0.5107527,0.4449838,0.15857606,0.37702265,0.77956986,0.63978493,0.5591398,0.4557713,0.24973032,0.37055016,0.7096774,0.6827957,0.6182796,0.57011867,0.32847896,0.35382956,0.6989247,0.7311828,0.6666667,0.58791804,0.42556635,0.3635383,0.6666667,0.7580645,0.6666667,0.65911543,0.52211434,0.4498382,0.68817204,0.65591395,0.74731183,0.6089536,0.57874864,0.5037756,0.6827957,0.6075269,0.72043014,0.7437972,0.5873786,0.5760518DOWN,0.053892214,0.4011976,0.5329341,0.8449898,0.5836401,0.79222906,0.023952097,0.21556886,0.61077845,1.0,0.7137014,0.77096117,0.0,0.14371258,0.6766467,0.808589,0.72597134,0.601636,0.2035928,0.41317365,0.7664671,0.8670757,0.7415133,0.38323107,0.33532935,0.70658684,0.7245509,0.3378323,0.5529652,0.25357872,0.7185629,0.4790419,0.88622755,0.57873213,0.5312883,0.16646217,0.65868264,1.0,0.6227545,0.29243353,0.33292434,0.11083844,0.8083832,0.994012,0.5808383,0.026584867,0.14478527,0.1599182,0.8143712,0.6766467,0.49101797,0.0,0.051124744,0.2404908,0.74850297,0.6047904,0.4491018,0.44376278,0.19059305,0.2638037,0.5449102,0.9221557,0.3473054,0.19263804,0.22576687,0.29693252,0.6287425,0.56287426,0.52095807,0.398364,0.35092026,0.3591002,0.6047904,0.56886226,0.5508982,0.63476485,0.5006135,0.401227,0.61676645,0.6407186,0.5868263,0.59345603,0.5770961,0.4417178,0.66467065,0.51497006,0.6467066,0.63721883,0.60940695,0.48711658,0.6347305,0.5808383,0.5988024,0.60899794,0.5529652,0.5202454DOWN,0.08609272,0.47682118,0.794702,0.62714684,1.0,0.54127425,0.0,0.70198673,0.8543046,0.60166204,0.7445983,0.37063712,0.059602648,0.77483445,1.0,0.47202215,0.5191136,0.3168975,0.3178808,0.70198673,0.9602649,0.3567867,0.31966758,0.31412742,0.57615894,0.8278146,0.6821192,0.27811635,0.08033241,0.33739612,0.7615894,0.77483445,0.6423841,0.2797784,0.0,0.42271468,0.9205298,0.6092715,0.60264903,0.28587258,0.12022161,0.57506925,0.9602649,0.53642386,0.4834437,0.3900277,0.2437673,0.57894737,0.86092716,0.6490066,0.50993377,0.55013853,0.300277,0.5152355,0.77483445,0.6754967,0.62913907,0.56620497,0.33850417,0.44210526,0.74834436,0.74834436,0.62913907,0.5130194,0.35401663,0.36509696,0.7086093,0.7218543,0.65562916,0.61495847,0.37562326,0.3396122,0.7218543,0.78807944,0.62913907,0.5434903,0.36842105,0.35623267,0.74172187,0.7549669,0.66225165,0.5080332,0.42160666,0.41385043,0.74172187,0.6821192,0.7086093,0.566759,0.50138503,0.48975068,0.74834436,0.69536424,0.74172187,0.58891964,0.54847646,0.53185594DOWN,0.11034483,0.43448275,0.74482757,0.77968335,1.0,0.7354881,0.0068965517,0.4413793,0.8827586,0.76649076,0.9940633,0.5501319,0.0,0.50344825,0.9172414,0.92546177,0.97031665,0.38390502,0.11034483,0.77931035,1.0,0.8060686,0.57453823,0.12005277,0.3586207,0.8413793,0.76551723,0.14313984,0.0883905,0.14577836,0.64827585,0.7241379,0.6137931,0.008575198,0.068601586,0.28166226,0.8413793,0.6896552,0.50344825,0.18865435,0.05540897,0.43271768,0.93793106,0.6,0.57931036,0.19327177,0.0,0.49604222,0.9172414,0.55172414,0.44827586,0.3364116,0.045514513,0.52044857,0.8896552,0.5448276,0.56551725,0.6728232,0.24406332,0.47955146,0.69655174,0.737931,0.5103448,0.5705805,0.28957784,0.37796834,0.6758621,0.7724138,0.5586207,0.62994725,0.353562,0.38258576,0.6827586,0.71034485,0.62068963,0.5046174,0.42480212,0.3944591,0.6896552,0.6068966,0.73103446,0.6246702,0.5171504,0.43667546,0.69655174,0.5241379,0.8,0.7222955,0.5158311,0.46174142,0.7034483,0.5103448,0.82758623,0.6813984,0.46635884,0.45184696DOWN,1.0,0.7580645,0.0,0.43444228,0.79843444,0.92367905,0.9516129,0.7096774,0.12903225,0.3072407,0.8923679,1.0,0.8064516,0.5,0.29032257,0.47162426,0.9726027,1.0,0.6451613,0.5,0.27419356,0.36007828,0.9099804,0.92367905,0.46774194,0.41935483,0.27419356,0.113502935,0.74168295,0.7964775,0.43548387,0.22580644,0.33870968,0.029354207,0.6614481,0.6379648,0.38709676,0.22580644,0.19354838,0.0,0.5772994,0.5714286,0.33870968,0.19354838,0.19354838,0.13111547,0.55772996,0.5694716,0.29032257,0.11290322,0.17741935,0.22113504,0.56164384,0.5753425,0.2580645,0.032258064,0.17741935,0.39726028,0.60078275,0.5753425,0.14516129,0.09677419,0.17741935,0.444227,0.5322896,0.5303327,0.16129032,0.048387095,0.20967741,0.54011744,0.49315068,0.4853229,0.11290322,0.09677419,0.14516129,0.40508807,0.4481409,0.444227,0.12903225,0.11290322,0.12903225,0.36007828,0.40117416,0.42465752,0.11290322,0.14516129,0.08064516,0.26418787,0.3894325,0.40508807,0.17741935,0.11290322,0.11290322,0.31506848,0.4187867,0.42465752DOWN,0.2244898,0.72959185,0.5153061,0.4482558,0.51337206,0.8604651,0.11734694,0.49489796,0.59183675,0.55813956,0.52093023,1.0,0.0,0.40816328,0.54591835,0.64767444,0.60639536,0.980814,0.0,0.23469388,0.57653064,0.45697674,0.59069765,0.8366279,0.18877551,0.08163265,0.627551,0.47151163,0.55813956,0.63546515,0.41836736,0.28061223,0.5969388,0.6377907,0.65465117,0.40581396,0.6377551,0.5153061,0.57653064,0.3872093,0.5482558,0.15639535,0.8622449,0.57653064,0.6785714,0.42732558,0.41627908,0.041860465,0.90816325,0.7755102,0.622449,0.6197674,0.36860466,0.0,0.77040815,1.0,0.56122446,0.6372093,0.3401163,0.020348838,0.64285713,0.92346936,0.5816327,0.42034882,0.22325581,0.13313954,0.56122446,0.8622449,0.5561224,0.48488373,0.33139536,0.20639534,0.5102041,0.8214286,0.52040815,0.447093,0.44476745,0.3,0.5561224,0.7091837,0.53571427,0.45290697,0.53430235,0.41686046,0.6632653,0.64285713,0.5867347,0.43139535,0.59418607,0.48139533,0.65816325,0.5408163,0.60714287,0.48372093,0.60872096,0.52965117RIGHT,0.5974026,0.8701299,0.8051948,0.6550138,0.12879485,0.69181234,0.74025977,0.6363636,0.41558442,0.6080957,0.061637536,0.8804048,0.84415585,0.4025974,0.15584415,0.40294388,0.0,1.0,1.0,0.2987013,0.16883117,0.33854645,0.30174792,0.9227231,0.58441556,0.103896104,0.0,0.75344986,0.4627415,0.8528059,0.41558442,0.19480519,0.051948052,0.5942962,0.56577736,0.77644897,0.32467532,0.14285715,0.19480519,0.7120515,0.65409386,0.70101196,0.25974026,0.35064936,0.24675325,0.7074517,0.676173,0.67341304,0.27272728,0.23376623,0.35064936,0.70561177,0.66145355,0.6688132,0.33766234,0.24675325,0.3116883,0.6458142,0.63661456,0.6697332,0.35064936,0.23376623,0.32467532,0.6853726,0.63569456,0.6513339,0.32467532,0.2987013,0.27272728,0.6274149,0.63109475,0.63937443,0.3116883,0.2987013,0.27272728,0.6402944,0.63937443,0.625575,0.2987013,0.33766234,0.2857143,0.650414,0.65409386,0.63109475,0.3116883,0.32467532,0.2857143,0.6448942,0.65409386,0.6421343,0.2857143,0.3116883,0.2987013,0.6292548,0.6430543,0.63661456RIGHT,0.22222222,0.35858586,0.0959596,0.35003713,0.768003,0.4536006,0.17676768,0.28787878,0.2979798,0.5460282,0.9977728,0.38938382,0.07575758,0.2777778,0.34848484,0.5545657,1.0,0.26429102,0.0,0.35353535,0.8737374,0.6848552,0.8188567,0.28025243,0.24747474,0.55050504,0.95454544,0.65219,0.57720864,0.27951002,0.43434343,0.66161615,1.0,0.6714922,0.30883443,0.34929472,0.6363636,0.75757575,0.7878788,0.4446919,0.016703786,0.45768374,0.7777778,0.85353535,0.7878788,0.49034894,0.0,0.61878246,0.93939394,0.75252527,0.37373737,0.4298441,0.15478842,0.62212324,0.77272725,0.66161615,0.37878788,0.51224947,0.26985896,0.64476615,0.7626263,0.5555556,0.4040404,0.44060877,0.34706756,0.6139569,0.6212121,0.530303,0.4090909,0.4521158,0.39495173,0.59317,0.57575756,0.3989899,0.43434343,0.44023755,0.42761692,0.57238305,0.52020204,0.46464646,0.479798,0.4769859,0.4617669,0.5560505,0.5050505,0.42424244,0.45454547,0.49554566,0.47847068,0.5463994,0.4949495,0.42929292,0.45454547,0.49183372,0.48812175,0.53526354RIGHT,0.5,0.0,0.23863636,0.7690254,0.1495327,0.43257678,0.5,0.19318181,0.20454545,0.7570093,0.3271028,0.16288385,0.59090906,0.35227272,0.18181819,0.7276369,0.4739653,0.005340454,0.6363636,0.57954544,0.27272728,0.7263017,0.58878505,0.0,0.6136364,1.0,0.19318181,0.47663552,0.68357813,0.13751669,0.53409094,0.875,0.39772728,0.4445928,0.6929239,0.3471295,0.5568182,0.8181818,0.3409091,0.11481976,0.57810414,0.48998666,0.60227275,0.60227275,0.2840909,0.08010681,0.5340454,0.58878505,0.6363636,0.4090909,0.26136363,0.13751669,0.65821093,0.5260347,0.65909094,0.2840909,0.32954547,0.20694259,0.8251001,0.47930574,0.6136364,0.25,0.3409091,0.14419226,0.870494,0.35914552,0.47727272,0.2159091,0.4659091,0.5540721,0.9986649,0.3364486,0.39772728,0.45454547,0.53409094,0.65821093,1.0,0.30173564,0.3181818,0.52272725,0.5568182,0.63951933,0.82777035,0.41388518,0.35227272,0.5568182,0.5681818,0.6622163,0.68357813,0.49799734,0.39772728,0.52272725,0.5681818,0.70627505,0.61148196,0.56875837RIGHT,0.0,0.3381295,1.0,0.77784324,0.7077195,0.2922805,0.09352518,0.5539568,0.89928055,0.7460224,0.39835003,0.2139069,0.28057554,0.5683453,0.8417266,0.5315262,0.16735415,0.33883324,0.25179857,0.7266187,0.53956836,0.53388333,0.018267531,0.52622277,0.44604316,0.63309354,0.51079136,0.45020625,0.0,0.7530937,0.5827338,0.64748204,0.22302158,0.5226871,0.114319384,0.87743074,0.5539568,0.38129497,0.30215827,0.6034178,0.28285208,1.0,0.4172662,0.4532374,0.1294964,0.5486152,0.26458457,0.9546258,0.4676259,0.1438849,0.21582733,0.48143783,0.3653506,0.88273424,0.41007194,0.09352518,0.24460432,0.54272246,0.39010018,0.77136123,0.23741007,0.09352518,0.17985612,0.5633471,0.39599293,0.6210961,0.37410071,0.107913665,0.1438849,0.46493813,0.39010018,0.5680613,0.4388489,0.17266187,0.17985612,0.51208013,0.415439,0.5680613,0.4172662,0.2086331,0.11510792,0.6075427,0.4295816,0.59693575,0.48920864,0.16546762,0.1438849,0.6346494,0.578079,0.58750737,0.47482014,0.2733813,0.1438849,0.60400707,0.63700646,0.5963465RIGHT,0.0,0.3809524,0.4857143,0.68625826,0.8807947,0.59933776,0.123809524,0.42857143,0.51428574,0.7102649,0.84437084,0.42880794,0.1904762,0.36190477,0.53333336,0.8013245,0.80215234,0.23841059,0.3904762,0.5714286,0.6761905,0.79304636,0.69205296,0.052152317,0.4857143,0.7809524,0.52380955,0.5289735,0.5687086,0.0,0.50476193,0.41904762,0.63809526,0.8476821,0.5273179,0.12996688,0.4952381,0.37142858,0.5904762,0.9966887,0.589404,0.18294702,0.6,0.46666667,0.552381,0.8783113,0.589404,0.22433774,0.6952381,0.51428574,0.51428574,1.0,0.61506623,0.39072847,0.8095238,0.64761907,0.52380955,0.95115894,0.62086093,0.5968543,0.85714287,0.7619048,0.5714286,0.7955298,0.5397351,0.7433775,0.8857143,1.0,0.50476193,0.48096028,0.36672187,0.839404,0.9238095,0.85714287,0.41904762,0.25662252,0.35513246,0.94205296,0.93333334,0.75238097,0.4,0.21937086,0.3807947,0.95612586,0.8857143,0.5904762,0.34285715,0.18294702,0.48758277,0.9710265,0.84761906,0.46666667,0.14285715,0.13162252,0.7450331,0.8460265RIGHT,0.101123594,0.5449438,1.0,0.7876182,0.65133274,0.2622528,0.17977528,0.69101125,0.92134833,0.6870163,0.3989682,0.32717112,0.28651685,0.96067417,0.85955054,0.5640585,0.092863284,0.47850388,0.3988764,0.83707863,0.55617976,0.4505589,0.0,0.67024934,0.5730337,0.7078652,0.44382024,0.46259674,0.078245915,0.8693035,0.6797753,0.60674155,0.17977528,0.3976784,0.19819432,0.9840929,0.5730337,0.33707866,0.24719101,0.42691314,0.3039553,1.0,0.5730337,0.050561797,0.15730338,0.3761823,0.4810834,0.9196045,0.5280899,0.0,0.252809,0.41788477,0.48710233,0.8009458,0.41573033,0.084269665,0.26404494,0.47162512,0.5189166,0.6698194,0.2977528,0.08988764,0.26404494,0.4845228,0.5520206,0.55159074,0.31460676,0.28651685,0.3483146,0.52364576,0.60490113,0.49355116,0.20786516,0.31460676,0.31460676,0.5898538,0.594583,0.4905417,0.17977528,0.4213483,0.39325842,0.7059329,0.66251075,0.5012898,0.20786516,0.41011235,0.40449437,0.62252796,0.64918315,0.47979364,0.2752809,0.4775281,0.46629214,0.644454,0.62252796,0.43594152RIGHT,0.43367347,0.29081634,0.53061223,0.47721946,0.24238479,0.26555586,0.5408163,0.32142857,0.46938777,0.5076803,0.22988805,0.30590993,0.7653061,0.44387755,0.3112245,0.45743296,0.25123665,0.37360063,0.75,0.5408163,0.1632653,0.4251497,0.24655038,0.46758658,0.8520408,0.6938776,0.08163265,0.22832596,0.35954177,0.49830773,0.6989796,0.47959185,0.0,0.16870606,0.5751107,0.6011455,0.56632656,0.37755102,0.08163265,0.22494142,0.72897685,0.58942986,0.27040815,0.2244898,0.18367347,0.33532935,0.8409268,0.5110648,0.2857143,0.15306123,0.5153061,0.4923197,1.0,0.3691747,0.1377551,0.28061223,0.5816327,0.54204637,0.89586043,0.29809946,0.10714286,0.38265306,0.81632656,0.59307474,0.6342098,0.22233793,0.10204082,0.5969388,0.99489796,0.52980995,0.39546993,0.22546212,0.3265306,0.75510204,1.0,0.44051027,0.18614943,0.30096328,0.45918366,0.78061223,0.72959185,0.37255922,0.012757095,0.46472272,0.65816325,0.74489796,0.61734694,0.43217912,0.0,0.6664931,0.72959185,0.63265306,0.5,0.44571728,0.17651653,0.66987765RIGHT,0.7744361,0.48872182,0.2932331,0.52108246,0.2630585,1.0,0.56390977,0.45112783,0.21052632,0.48332286,0.38137195,0.969163,0.39097744,0.2706767,0.33834586,0.37948394,0.56891125,0.88294524,0.21804512,0.33082706,0.37593985,0.15733166,0.5292637,0.78980494,0.20300752,0.05263158,0.49624062,0.019509126,0.5431089,0.6645689,0.31578946,0.0,0.5338346,0.0025173065,0.5821271,0.47388294,0.42105263,0.21052632,0.62406015,0.30711138,0.61296415,0.21711768,0.44360903,0.47368422,0.57894737,0.28760228,0.4468219,0.030207679,0.57894737,0.518797,0.62406015,0.55443674,0.4323474,0.010069226,0.5488722,0.96240604,0.5488722,0.68344873,0.41032097,0.0,0.48872182,0.96240604,0.60902256,0.7614852,0.35305223,0.06356199,0.46616542,1.0,0.518797,0.502832,0.2976715,0.14977974,0.44360903,0.80451125,0.5112782,0.56135935,0.3524229,0.18376337,0.48120302,0.80451125,0.45112783,0.45185652,0.34927627,0.2435494,0.556391,0.63909775,0.5112782,0.50723726,0.37759596,0.342983,0.59398496,0.7067669,0.44360903,0.48269352,0.42731276,0.39899307RIGHT,0.0,0.7151899,0.664557,0.6490499,0.7108076,0.0,0.012658228,0.87341774,0.70253164,0.7452494,0.54691213,0.22446556,0.18354431,1.0,0.6962025,0.682304,0.40914488,0.5190024,0.556962,0.98734176,0.53797466,0.554038,0.33016628,0.78087884,0.70886075,0.79746836,0.443038,0.41152018,0.34382424,0.9311164,0.7531645,0.664557,0.443038,0.51425177,0.40795726,1.0,0.7531645,0.56329113,0.43670887,0.44893113,0.50950116,0.9827791,0.7278481,0.44936708,0.38607594,0.4317102,0.554038,0.91686463,0.5316456,0.35443038,0.46835443,0.5653207,0.5997625,0.8355107,0.51898736,0.37341774,0.43670887,0.5587886,0.57719713,0.7589074,0.5063291,0.4177215,0.4620253,0.5136579,0.5635392,0.7024941,0.53797466,0.38607594,0.47468355,0.56057006,0.567696,0.6543943,0.5,0.43037975,0.4556962,0.56710213,0.57066506,0.6110451,0.49367088,0.4113924,0.44936708,0.56710213,0.57304037,0.5825416,0.47468355,0.4556962,0.44936708,0.57185274,0.56828976,0.56294537,0.4620253,0.443038,0.43670887,0.5700713,0.567696,0.5647268RIGHT,0.38513514,0.1418919,0.0,0.1783054,0.65456235,0.44785848,0.29054055,0.16891892,0.013513514,0.4529795,0.81657356,0.4641527,0.1891892,0.2027027,0.22972973,0.71927375,0.9492551,0.41945997,0.074324325,0.31756756,0.49324325,0.9967412,1.0,0.36312848,0.06081081,0.4864865,0.8310811,0.89944136,0.8337989,0.22020485,0.27027026,0.6418919,0.8986486,0.8272812,0.58472997,0.20065176,0.3310811,0.7027027,1.0,0.7094972,0.30865923,0.2481378,0.5135135,0.9864865,0.8581081,0.39757913,0.06424581,0.37756053,0.777027,0.9256757,0.7567568,0.3500931,0.0,0.5395717,0.8445946,0.7905405,0.49324325,0.44180635,0.075418994,0.71182495,0.7364865,0.722973,0.5202703,0.45018622,0.18808194,0.74068904,0.75,0.6081081,0.4527027,0.3747672,0.28631285,0.7039106,0.6283784,0.4256757,0.3918919,0.45903167,0.38268158,0.6387337,0.527027,0.44594595,0.4189189,0.42877096,0.41061452,0.5744879,0.527027,0.3918919,0.45945945,0.41387337,0.4162011,0.5288641,0.5,0.4527027,0.4527027,0.45996276,0.44832402,0.50605214RIGHT,0.3030303,0.32323232,0.045454547,0.37678635,0.6357616,0.4865807,0.22727273,0.2777778,0.121212125,0.42418963,0.7967933,0.45486233,0.14141414,0.20707071,0.4949495,0.65423495,1.0,0.37295225,0.121212125,0.3030303,0.4040404,0.5890554,0.9355176,0.27187175,0.0,0.33333334,0.8080808,0.6228651,0.7162774,0.283374,0.1969697,0.5707071,1.0,0.58870685,0.45625654,0.22795399,0.36363637,0.6919192,0.90909094,0.49529454,0.20634368,0.27326596,0.43939394,0.75757575,0.6363636,0.338794,0.0,0.39909375,0.59090906,0.74747473,0.7929293,0.44789127,0.038340885,0.54827464,0.72727275,0.68686867,0.4949495,0.4078076,0.1387243,0.5768561,0.67676765,0.5151515,0.34848484,0.433252,0.2488672,0.6050889,0.6262626,0.4090909,0.37373737,0.4820495,0.3597072,0.59637505,0.5959596,0.42929292,0.33333334,0.45451376,0.3816661,0.56361103,0.5050505,0.36363637,0.35353535,0.4318578,0.39700243,0.514465,0.46464646,0.36363637,0.3838384,0.43464622,0.44196585,0.47019866,0.42424244,0.3888889,0.4040404,0.43917742,0.46113628,0.45590797RIGHT,0.020134227,0.32885906,0.67785233,0.7292788,0.926803,0.13401507,0.0,0.4161074,0.9261745,0.72066736,0.6765339,0.12594187,0.13422818,0.5167785,1.0,0.6108719,0.37782562,0.11840689,0.23489933,0.80536914,0.70469797,0.48277718,0.07212056,0.20882669,0.5503356,0.9932886,0.6308725,0.44617867,0.0,0.48116255,0.6375839,0.96644294,0.61744964,0.5091496,0.0026910657,0.6770721,0.7315436,0.86577183,0.44295302,0.376211,0.041980624,0.8616792,0.81208056,0.7114094,0.30872482,0.39235738,0.15069968,0.9660926,0.7919463,0.4295302,0.39597315,0.38266954,0.31216362,1.0,0.6308725,0.19463088,0.32214764,0.4634015,0.37997848,0.8083961,0.54362416,0.19463088,0.32885906,0.4547901,0.4510226,0.631324,0.44966444,0.2080537,0.34228188,0.44402584,0.4660926,0.48277718,0.40939596,0.295302,0.3691275,0.46232507,0.46824542,0.42465016,0.37583894,0.3489933,0.37583894,0.45317546,0.46555436,0.4058127,0.37583894,0.38255033,0.38255033,0.48600647,0.4752422,0.41227126,0.38926175,0.4295302,0.38926175,0.4714747,0.46178687,0.46501616RIGHT,0.0,0.75438595,0.9736842,0.82086957,0.5408696,0.23188406,0.07017544,1.0,0.98245615,0.57101446,0.14492753,0.4284058,0.33333334,0.9736842,0.78070176,0.50666666,0.0,0.6701449,0.49122807,0.8947368,0.5701754,0.4869565,0.03594203,0.89507246,0.68421054,0.7982456,0.2631579,0.44347826,0.17217392,1.0,0.7017544,0.4473684,0.33333334,0.49391305,0.35304347,0.99594206,0.69298244,0.25438598,0.23684211,0.5257971,0.52231884,0.89159423,0.48245615,0.21929824,0.28070176,0.5855073,0.5669565,0.82376814,0.35964912,0.1754386,0.28947368,0.5785507,0.57391304,0.76927537,0.30701753,0.21052632,0.36842105,0.59768116,0.5785507,0.7257971,0.36842105,0.18421052,0.35964912,0.5994203,0.6023188,0.7142029,0.39473686,0.24561404,0.31578946,0.5768116,0.5791304,0.7031884,0.4122807,0.16666667,0.30701753,0.6284058,0.6144928,0.65449274,0.42982456,0.25438598,0.30701753,0.60347825,0.6110145,0.6168116,0.3508772,0.25438598,0.31578946,0.63304347,0.6231884,0.5918841,0.2631579,0.31578946,0.34210527,0.70608693,0.6434783,0.5837681RIGHT,0.31111112,1.0,0.32592592,0.7083631,0.056468908,0.89921373,0.35555556,0.62222224,0.11851852,0.34739098,0.18513224,0.96640456,0.42222223,0.6074074,0.08888889,0.25947106,0.30378842,0.93423873,0.4148148,0.4888889,0.1037037,0.18227305,0.45604002,1.0,0.34814814,0.44444445,0.17777778,0.0,0.47462472,0.95782703,0.33333334,0.11111111,0.27407408,0.231594,0.5475339,0.81844175,0.2962963,0.0,0.25925925,0.46819156,0.5625447,0.6933524,0.22962964,0.08888889,0.21481481,0.46676198,0.53323805,0.5954253,0.19259259,0.096296296,0.21481481,0.5353824,0.51608294,0.5153681,0.19259259,0.19259259,0.19259259,0.50750536,0.49320942,0.4817727,0.19259259,0.16296296,0.2,0.52537525,0.49249464,0.47676912,0.17037037,0.22962964,0.18518518,0.5189421,0.49035025,0.48320228,0.19259259,0.18518518,0.17777778,0.54896355,0.4996426,0.5110794,0.18518518,0.2074074,0.17777778,0.50822014,0.48892066,0.5260901,0.18518518,0.19259259,0.17037037,0.50321656,0.48820585,0.5518227,0.2074074,0.18518518,0.17037037,0.4839171,0.4974982,0.5589707RIGHT,0.5,1.0,0.32,0.40577808,0.25869992,0.9455023,0.5133333,0.6,0.38666666,0.6165463,0.46027577,1.0,0.47333333,0.64666665,0.30666667,0.45370978,0.48653972,0.9317137,0.44,0.56666666,0.27333334,0.0,0.5016415,0.9021668,0.48,0.0,0.45333335,0.18713066,0.5725542,0.9474721,0.38,0.18,0.34,0.5889691,0.6099803,0.74983585,0.34666666,0.25333333,0.22,0.6572554,0.59422195,0.67761,0.33333334,0.22,0.29333332,0.5975049,0.58634275,0.6638214,0.32,0.26,0.26,0.61523306,0.5981615,0.6139199,0.32,0.28666666,0.28,0.60144454,0.6099803,0.6034143,0.30666667,0.28,0.28666666,0.6132633,0.6093237,0.59159553,0.29333332,0.3,0.30666667,0.59159553,0.6040709,0.58831257,0.28666666,0.28666666,0.28666666,0.6066973,0.6060407,0.5988181,0.28666666,0.28666666,0.29333332,0.5909389,0.6099803,0.6126067,0.29333332,0.29333332,0.28666666,0.5988181,0.6172029,0.6185161,0.28,0.3,0.3,0.5981615,0.6336179,0.6178595RIGHT,0.0,0.58666664,0.75333333,0.91178113,0.6940257,0.3294249,0.19333333,0.68666667,0.88,0.7934115,0.46342826,0.4014517,0.32666665,0.99333334,0.8933333,0.7403685,0.18369626,0.52149636,0.49333334,1.0,0.75333333,0.4098269,0.0,0.8380793,0.76,0.84,0.53333336,0.5371301,0.1630374,1.0,0.73333335,0.45333335,0.38666666,0.44891122,0.3316583,0.9759911,0.62666667,0.42,0.24666667,0.5002792,0.46007818,0.91066444,0.5,0.16,0.32666665,0.5823562,0.57565606,0.78671134,0.42,0.25333333,0.34,0.61585706,0.59910667,0.67392516,0.40666667,0.37333333,0.36,0.54606366,0.61585706,0.6482412,0.37333333,0.37333333,0.36,0.63316584,0.6381909,0.6554997,0.37333333,0.31333333,0.38,0.66164154,0.6538247,0.6649916,0.38666666,0.34,0.34,0.63484085,0.6420994,0.6683417,0.36666667,0.34666666,0.34,0.64600784,0.6387493,0.6610832,0.36,0.35333332,0.34666666,0.6566164,0.64879954,0.6515913,0.34666666,0.34,0.34666666,0.64433277,0.6538247,0.64656615RIGHT,0.26666668,0.28148147,0.0074074073,0.45925555,0.77816904,0.47434607,0.15555556,0.2962963,0.19259259,0.6051308,0.9129779,0.39688128,0.0,0.25185186,0.42962962,0.8239437,0.97032195,0.3138833,0.05185185,0.4888889,0.67407405,0.862173,1.0,0.22334003,0.18518518,0.4,0.9259259,0.49245474,0.8455734,0.23189135,0.2962963,0.4962963,1.0,0.6222334,0.67354125,0.21327968,0.4962963,0.76296294,0.9925926,0.5724346,0.35462776,0.39336017,0.7111111,0.8666667,0.93333334,0.42655936,0.1332998,0.55331993,0.88148147,0.7925926,0.78518516,0.53420526,0.038229376,0.64889336,0.88148147,0.85925925,0.4814815,0.556338,0.0,0.6780684,0.91851854,0.75555557,0.47407407,0.44114688,0.048792757,0.81187123,0.837037,0.44444445,0.36296296,0.471831,0.24647887,0.70372236,0.77037036,0.37777779,0.32592592,0.53521127,0.4024145,0.60663986,0.6296296,0.43703705,0.36296296,0.49245474,0.44818914,0.5412475,0.56296295,0.44444445,0.45925927,0.48440644,0.47786722,0.52012074,0.4962963,0.45925927,0.46666667,0.5165996,0.5055332,0.5140845RIGHT,0.16551724,0.22758621,0.0,0.52165544,0.7805582,0.39076033,0.04137931,0.2,0.055172414,0.6515881,0.89701635,0.39268526,0.06896552,0.15862069,0.36551723,0.89076036,1.0,0.31135708,0.013793103,0.33793104,0.69655174,0.7786333,0.92252165,0.1159769,0.020689655,0.36551723,0.79310346,0.6564004,0.72810394,0.0346487,0.06896552,0.6275862,0.7517241,0.473051,0.41819057,0.05967276,0.2551724,0.5724138,1.0,0.45235804,0.23772858,0.09287777,0.32413793,0.8413793,0.7724138,0.15495668,0.01491819,0.23291627,0.50344825,0.6896552,0.49655172,0.25360924,0.0,0.48556304,0.6758621,0.80689657,0.537931,0.340231,0.021655438,0.6717998,0.7241379,0.5586207,0.57931036,0.37006736,0.13618864,0.7666025,0.69655174,0.56551725,0.33103448,0.3253128,0.18142445,0.79788256,0.6068966,0.27586207,0.29655173,0.36669874,0.26371512,0.7622714,0.53103447,0.3034483,0.3034483,0.35563043,0.2757459,0.65543795,0.4,0.18620689,0.28275862,0.35803658,0.34456208,0.5707411,0.3034483,0.2551724,0.33103448,0.40134746,0.38017324,0.5235804RIGHT,0.1904762,0.19727892,0.0,0.24932563,0.57649326,0.49980733,0.06122449,0.17006803,0.006802721,0.4751445,0.78304434,0.41657034,0.006802721,0.0952381,0.3809524,0.7156069,0.99075145,0.30828518,0.0952381,0.2993197,0.34013605,0.84894025,1.0,0.15260115,0.08163265,0.50340134,0.5986394,0.8300578,0.88709056,0.03159923,0.07482993,0.4829932,0.9319728,0.68439305,0.6840077,0.07321773,0.25170067,0.7414966,1.0,0.45703277,0.37379575,0.1344894,0.2993197,0.89115644,0.85714287,0.2797688,0.07630058,0.2470135,0.4489796,0.81632656,0.9183673,0.1973025,0.0038535646,0.488632,0.6258503,0.7482993,0.89115644,0.36493257,0.0,0.6524085,0.82312924,0.9591837,0.5578231,0.3549133,0.056647398,0.6947977,0.82312924,0.52380955,0.5442177,0.3788054,0.15799615,0.76030827,0.85714287,0.4217687,0.3877551,0.36570328,0.26512524,0.73102117,0.7414966,0.34013605,0.3605442,0.3637765,0.31098264,0.6231214,0.6258503,0.2585034,0.2857143,0.3734104,0.35529864,0.5044316,0.5102041,0.21088435,0.36734694,0.3849711,0.39499035,0.40770712RIGHT,0.33783785,0.6216216,0.0,0.8428228,0.92702484,0.4498797,0.2837838,0.4054054,0.27027026,0.8644747,1.0,0.46752205,0.2027027,0.47297296,0.45945945,0.43544507,0.872494,0.44105855,0.1891892,0.43243244,0.7837838,0.5068164,0.7882919,0.41619888,0.13513513,0.4864865,0.9054054,0.36407378,0.6327185,0.38492382,0.25675675,0.35135135,0.8513514,0.30392942,0.54290295,0.42902967,0.24324325,0.2972973,0.8918919,0.43143544,0.5846031,0.41218925,0.27027026,0.44594595,0.7432432,0.5084202,0.57097036,0.3448276,0.3108108,0.5945946,0.8513514,0.40096232,0.41860464,0.3384122,0.44594595,0.43243244,0.9459459,0.5204491,0.39214113,0.40737772,0.45945945,0.7027027,1.0,0.542101,0.28949478,0.37369686,0.5675676,0.7702703,0.7972973,0.45549318,0.072975144,0.42261428,0.7162162,0.6486486,0.7432432,0.45148355,0.0,0.53007215,0.7837838,0.44594595,0.44594595,0.4915798,0.070569366,0.58299917,0.7027027,0.5540541,0.22972973,0.4434643,0.12590216,0.52686447,0.6891892,0.3783784,0.2027027,0.4587009,0.22453889,0.5252606RIGHT,0.123595506,0.5505618,1.0,0.58631414,0.41524106,0.31804043,0.13483146,0.5730337,0.7303371,0.4976672,0.09875583,0.5132193,0.3483146,0.6179775,0.8202247,0.67962676,0.10419907,0.64307934,0.42696628,0.6741573,0.64044946,0.4688958,0.0,0.8258165,0.5168539,0.66292137,0.24719101,0.537325,0.13374805,0.9774495,0.5280899,0.40449437,0.17977528,0.64696735,0.19751166,1.0,0.64044946,0.25842696,0.06741573,0.56842923,0.34059098,0.97511667,0.5280899,0.07865169,0.0,0.5762053,0.3919129,0.89891136,0.38202247,0.011235955,0.07865169,0.63374805,0.5046656,0.781493,0.31460676,0.033707865,0.06741573,0.60342145,0.60575426,0.67729396,0.21348314,0.033707865,0.13483146,0.64463454,0.655521,0.61275274,0.16853933,0.123595506,0.13483146,0.62519443,0.6547434,0.58242613,0.14606741,0.14606741,0.15730338,0.63063765,0.64463454,0.5769829,0.123595506,0.2247191,0.16853933,0.62363917,0.63141525,0.60031104,0.06741573,0.20224719,0.24719101,0.6539658,0.60730946,0.67651635,0.07865169,0.2247191,0.20224719,0.6687403,0.57465005,0.748056RIGHT,0.39130434,0.7826087,0.19130434,0.28045157,0.14795008,0.31194296,0.6347826,0.90434784,0.2521739,0.14854427,0.29114676,0.50386214,0.7478261,1.0,0.22608696,0.14260249,0.41651812,0.8169935,0.8869565,0.6695652,0.37391305,0.03683898,0.5157457,1.0,0.71304345,0.27826086,0.42608696,0.0,0.57635176,0.9827689,0.53913045,0.31304348,0.42608696,0.07367796,0.5412953,0.8235294,0.32173914,0.0,0.51304346,0.29887107,0.46939987,0.63755196,0.20869565,0.008695652,0.47826087,0.19786096,0.30778372,0.41830066,0.2521739,0.060869563,0.4869565,0.13903743,0.1657754,0.26143792,0.5565217,0.13043478,0.5217391,0.19489008,0.13666072,0.19073084,0.6869565,0.16521738,0.62608695,0.26024956,0.13844326,0.11942959,0.66086954,0.33913043,0.49565217,0.24955437,0.10695187,0.07605466,0.6173913,0.35652173,0.45217392,0.275104,0.12715389,0.075460486,0.47826087,0.42608696,0.33913043,0.3060012,0.18597741,0.10338681,0.31304348,0.44347826,0.26956522,0.27866903,0.2073678,0.11645871,0.2521739,0.39130434,0.19130434,0.2020202,0.18775995,0.14854427LEFT,0.18709677,0.9483871,0.09677419,0.4181919,0.49195784,0.5335552,0.12258065,1.0,0.025806451,0.27287853,0.6849695,0.74819744,0.16129032,0.8451613,0.058064517,0.1619523,0.80698836,0.9184692,0.19354838,0.61935484,0.14838709,0.21963394,0.9556295,0.9961176,0.18064517,0.4516129,0.31612903,0.21686079,1.0,0.9822518,0.13548388,0.090322584,0.46451613,0.20743206,0.8580144,0.8790904,0.22580644,0.012903226,0.59354836,0.348863,0.60288405,0.61064893,0.42580646,0.0,0.716129,0.41430947,0.38047698,0.34553522,0.47096774,0.13548388,0.61290324,0.26788685,0.13810316,0.17359956,0.59354836,0.13548388,0.59354836,0.33887964,0.0338325,0.09151414,0.63225806,0.22580644,0.52903223,0.4714365,0.0,0.026067665,0.6516129,0.28387097,0.41935483,0.43871325,0.018302828,0.10094287,0.38709676,0.4,0.30967742,0.49084857,0.1386578,0.21575153,0.42580646,0.4,0.29032257,0.54132,0.2651137,0.327787,0.47741935,0.4516129,0.23870967,0.4608985,0.3471991,0.41098168,0.38709676,0.4516129,0.2516129,0.3810316,0.42817527,0.47975597LEFT,0.10559006,0.5217391,0.29813665,0.49567366,0.98599094,0.79151213,0.049689442,0.3167702,0.54658383,0.3798929,1.0,0.80057687,0.13664596,0.0,0.68944097,0.21631645,0.684384,0.6868562,0.41614908,0.024844721,0.7515528,0.24227442,0.41120726,0.50473833,0.63975155,0.024844721,0.7763975,0.23856613,0.20107128,0.3893696,0.76397514,0.26086956,0.65217394,0.30449113,0.031726412,0.289658,0.88819873,0.14285715,0.68944097,0.5776679,0.0,0.21096003,1.0,0.45341614,0.55279505,0.6229913,0.15986815,0.22002472,0.7453416,0.5341615,0.5031056,0.65842605,0.29789865,0.3341574,0.63975155,0.59006214,0.46583852,0.6596621,0.41985992,0.40379068,0.57763976,0.39130434,0.48447204,0.6328801,0.5059745,0.473424,0.6086956,0.51552796,0.3043478,0.51133084,0.5249279,0.4960857,0.4409938,0.4037267,0.41614908,0.6028018,0.5554182,0.5092707,0.46583852,0.41614908,0.44720498,0.5236918,0.52657604,0.4894932,0.44720498,0.4099379,0.45341614,0.54511744,0.51380306,0.48207664,0.47826087,0.39130434,0.47204968,0.5232798,0.49649772,0.4680676LEFT,0.23602484,0.757764,0.39751554,0.38617402,1.0,0.95411205,0.27329192,0.72670805,0.42236024,0.36233613,0.966031,0.98033375,0.32298136,0.55279505,0.5590062,0.4010727,0.9523242,1.0,0.25465837,0.27329192,0.72670805,0.2580453,0.72765195,0.86889154,0.39130434,0.0,0.8509317,0.25983313,0.37306318,0.5363528,0.6956522,0.26708075,0.7204969,0.23539929,0.1954708,0.30393326,0.8136646,0.099378884,0.8819876,0.4034565,0.12395709,0.20023838,0.9254658,0.27329192,0.7453416,0.30274135,0.0,0.15137067,1.0,0.29192546,0.67701864,0.4147795,0.047079857,0.19725864,0.9006211,0.5031056,0.621118,0.6460072,0.20321812,0.2717521,0.8198758,0.39130434,0.70186335,0.738975,0.32419547,0.33551848,0.73913044,0.5838509,0.50931674,0.6728248,0.38200238,0.38617402,0.66459626,0.48447204,0.5217391,0.71454114,0.44815257,0.41418356,0.59006214,0.5652174,0.54037267,0.6722289,0.5238379,0.4034565,0.66459626,0.5279503,0.49068323,0.50595945,0.5220501,0.4046484,0.60248446,0.54658383,0.48447204,0.5750894,0.5512515,0.43027413LEFT,0.36090225,0.88721806,0.45112783,0.39801773,0.45696402,0.523735,0.31578946,0.9699248,0.45864663,0.32603025,0.39958268,0.5279082,0.35338345,0.87969923,0.46616542,0.35367763,0.39488783,0.5586854,0.33082706,0.94736844,0.24812031,0.33385497,0.48826292,0.6567553,0.21804512,0.8947368,0.24812031,0.4246218,0.685446,0.7934272,0.09774436,0.7894737,0.16541353,0.40114763,0.8325509,0.89462703,0.11278196,0.7368421,0.067669176,0.3933229,0.9040167,0.943662,0.10526316,0.48120302,0.32330826,0.41627544,1.0,0.9838289,0.0,0.2857143,0.48872182,0.2597809,0.9744392,0.90558165,0.05263158,0.2631579,0.56390977,0.17944705,0.71935314,0.76212835,0.48120302,0.12781955,0.7593985,0.34220135,0.48774126,0.5633803,0.6315789,0.007518797,0.96240604,0.36619717,0.3437663,0.4105373,0.69924814,0.2556391,0.7819549,0.35211268,0.12467397,0.2535211,0.94736844,0.05263158,0.8947368,0.49713093,0.0,0.16953573,1.0,0.36842105,0.6466165,0.5279082,0.03651539,0.11476265,0.81954885,0.36842105,0.5864662,0.46426708,0.1304121,0.18153365LEFT,0.13636364,0.97159094,0.24431819,0.4849438,0.6202247,0.62382025,0.028409092,1.0,0.14772727,0.33348316,0.6966292,0.80764043,0.011363637,0.92045456,0.1534091,0.29303372,0.8116854,0.9833708,0.056818184,0.60227275,0.25,0.21078652,0.86876404,1.0,0.1875,0.3693182,0.48863637,0.16044945,0.80089885,0.9011236,0.29545453,0.23295455,0.6193182,0.09662921,0.6044944,0.7186517,0.5568182,0.2215909,0.64204544,0.16853933,0.4139326,0.49213484,0.64204544,0.0,0.875,0.36269662,0.2058427,0.2588764,0.73295456,0.32386363,0.73295456,0.3141573,0.03505618,0.1469663,0.7613636,0.3181818,0.58522725,0.44898877,0.0,0.11460674,0.77840906,0.3693182,0.59090906,0.5716854,0.08089887,0.12674157,0.6875,0.38636363,0.60227275,0.48,0.14741573,0.19011235,0.59090906,0.65340906,0.3068182,0.37842697,0.21438202,0.28853932,0.5625,0.4375,0.4375,0.46831462,0.33213484,0.36719102,0.60227275,0.4034091,0.41477272,0.3235955,0.3797753,0.4022472,0.53977275,0.4318182,0.35227272,0.36629215,0.40898877,0.42561796LEFT,0.39130434,0.8913044,0.38586956,0.57967913,0.65935826,0.8171123,0.35869566,0.92391306,0.36956522,0.43743315,0.757754,0.8459893,0.3152174,0.9293478,0.33695653,0.30855614,0.81122994,0.93048126,0.25,0.8152174,0.38043478,0.12032086,0.81390375,1.0,0.29347825,0.7336956,0.4076087,0.21336898,0.79946524,0.973262,0.375,0.48913044,0.65217394,0.3395722,0.78770053,0.9609626,0.3478261,0.51086956,0.6576087,0.0,0.6363636,0.8839572,0.5054348,0.0,0.8097826,0.3379679,0.4299465,0.702139,0.7119565,0.27173913,0.8097826,0.72459894,0.35080215,0.34385026,0.7880435,0.1521739,0.86413044,0.3631016,0.22459893,0.14919786,0.92391306,0.35326087,0.6576087,0.36898395,0.17058824,0.069518715,1.0,0.2228261,0.67391306,0.786631,0.23101604,0.07967915,0.88586956,0.59782606,0.54347825,0.46042782,0.40160426,0.09358289,0.76086956,0.38586956,0.57608694,0.33636364,0.51336896,0.31122994,0.7173913,0.42391303,0.57608694,0.6946524,0.6315508,0.46256685,0.61413044,0.5,0.54347825,0.53208554,0.6128342,0.49358287LEFT,0.184,0.624,0.176,0.8985591,0.0,0.66801155,0.384,0.672,0.0,0.37925074,0.1925072,0.57636887,0.632,0.64,0.024,0.17348704,0.5072046,0.40230548,0.872,0.584,0.184,0.23573487,0.75677234,0.30605188,0.992,0.624,0.432,0.24092218,0.9112392,0.27896252,1.0,0.616,0.464,0.29971182,1.0,0.318732,0.88,0.616,0.576,0.4282421,0.88645536,0.35619596,0.728,0.704,0.68,0.5319885,0.80864555,0.44380403,0.64,0.712,0.696,0.48414984,0.80518734,0.50259364,0.576,0.672,0.712,0.4610951,0.7884726,0.55446684,0.488,0.6,0.704,0.3850144,0.7181556,0.5976945,0.456,0.512,0.752,0.4576369,0.7002882,0.62536025,0.408,0.48,0.752,0.38616714,0.6426513,0.6334294,0.344,0.456,0.6,0.3429395,0.59884727,0.61556196,0.384,0.352,0.704,0.42132565,0.56023055,0.6017291,0.288,0.4,0.664,0.562536,0.57060516,0.58386165LEFT,0.625,0.4276316,0.0,0.029808775,0.31664792,0.29865018,0.7565789,0.49342105,0.1513158,0.11811024,0.6422947,0.03824522,0.94078946,0.59210527,0.23684211,0.3768279,0.9071991,0.0,1.0,0.6381579,0.55263156,0.46287963,1.0,0.13217098,0.7763158,0.6315789,0.55921054,0.43025872,0.85883015,0.24296963,0.70394737,0.6381579,0.625,0.52980876,0.74915636,0.31327334,0.57894737,0.65789473,0.6184211,0.5281215,0.6670416,0.42350957,0.57894737,0.59210527,0.6184211,0.3616423,0.5928009,0.4471316,0.53289473,0.5197368,0.6644737,0.5005624,0.6248594,0.42182228,0.48026314,0.57894737,0.6447368,0.47187853,0.61417323,0.4105737,0.46052632,0.5263158,0.6315789,0.5573678,0.67210346,0.40438694,0.4276316,0.6052632,0.5986842,0.53543305,0.7176603,0.38526434,0.44078946,0.6447368,0.65789473,0.44994375,0.65635544,0.39482564,0.3881579,0.6052632,0.65789473,0.24521935,0.5888639,0.47862768,0.3881579,0.7105263,0.6052632,0.10911136,0.5399325,0.5849269,0.3223684,0.47368422,0.7105263,0.12542182,0.38920134,0.68110234LEFT,0.10619469,0.044247787,0.32743362,0.73463684,0.28142458,0.45251396,0.14159292,0.0,0.38938054,0.9134078,0.24790503,0.29469272,0.23893805,0.44247788,0.18584071,0.8680168,0.26675978,0.17178771,0.42477876,0.5132743,0.21238938,0.8310056,0.32891062,0.15363128,0.539823,0.49557522,0.34513274,1.0,0.4301676,0.2730447,0.50442475,0.123893805,0.5221239,0.99441344,0.39315644,0.32472068,0.34513274,0.5575221,0.57522124,0.9797486,0.25837988,0.32122904,0.3539823,0.34513274,0.6460177,0.6019553,0.19273743,0.32472068,0.46902654,0.5663717,0.4159292,0.5412011,0.25628492,0.34497207,0.4159292,0.7876106,0.31858408,0.26955307,0.29818437,0.3715084,0.31858408,1.0,0.19469027,0.06773743,0.3715084,0.46857542,0.40707964,0.6283186,0.21238938,0.0,0.54818434,0.52793294,0.44247788,0.8053097,0.22123894,0.23184358,0.64874303,0.55377096,0.38053098,0.74336284,0.38938054,0.39594972,0.6627095,0.57821226,0.32743362,0.71681416,0.43362832,0.39734638,0.60544693,0.6159218,0.32743362,0.6814159,0.40707964,0.3456704,0.551676,0.64385474LEFT,0.68,0.0,0.712,0.4753138,0.590795,0.62343097,0.824,0.04,0.76,0.674477,0.33891213,0.22845188,0.976,0.296,0.632,0.7297071,0.24351464,0.0,1.0,0.52,0.496,0.7414226,0.26108786,0.009205021,0.88,0.632,0.528,0.832636,0.41589957,0.16066946,0.72,0.648,0.528,0.9748954,0.67698747,0.50794977,0.68,0.688,0.512,0.93389124,0.80167365,0.716318,0.552,0.648,0.488,1.0,0.87698746,0.84267783,0.52,0.608,0.56,0.9757322,0.883682,0.8677824,0.52,0.536,0.488,0.841841,0.8677824,0.86025107,0.52,0.512,0.44,0.7087866,0.8251046,0.80251044,0.52,0.456,0.496,0.758159,0.85271966,0.75062764,0.504,0.464,0.552,0.72384936,0.809205,0.73138076,0.536,0.392,0.552,0.6794979,0.7924686,0.7054393,0.52,0.416,0.52,0.66527194,0.7874477,0.70292884,0.52,0.384,0.48,0.6368201,0.81506276,0.7305439LEFT,0.38297874,0.89361703,0.4574468,0.30263767,0.36418325,0.6173068,0.29787233,1.0,0.40957448,0.22489588,0.41739935,0.7811198,0.21276596,0.92021275,0.3776596,0.17677002,0.5053216,0.91763073,0.20744681,0.78723407,0.3776596,0.17445627,0.63026375,0.99167055,0.14361702,0.67021275,0.35106382,0.22813512,0.72882926,1.0,0.122340426,0.49468085,0.41489363,0.20638593,0.76122165,0.89865804,0.20744681,0.22340426,0.48404256,0.122165665,0.60157335,0.7251273,0.44148937,0.04255319,0.57978725,0.21980564,0.4312818,0.4720037,0.5531915,0.0,0.60638297,0.28227672,0.24895881,0.2346136,0.6648936,0.07446808,0.5744681,0.31790838,0.11476169,0.07450254,0.7765958,0.21276596,0.4787234,0.3475243,0.06200833,0.0,0.78723407,0.35106382,0.47340426,0.5497455,0.18093476,0.020360945,0.64361703,0.5638298,0.39893618,0.49236465,0.24895881,0.12077742,0.5159575,0.59574467,0.35638297,0.4349838,0.31466913,0.23692735,0.4680851,0.5265958,0.36702126,0.4386858,0.37158722,0.3229986,0.43085107,0.46276596,0.38297874,0.4595095,0.41045812,0.364646LEFT,0.0,0.11851852,0.34814814,0.80338734,0.33726066,0.4904271,0.18518518,0.22962964,0.25925925,0.9145803,0.26141384,0.32547864,0.37777779,0.14074074,0.37777779,0.7592047,0.19734904,0.19440353,0.53333336,0.22962964,0.31851852,1.0,0.24226804,0.0832106,0.6296296,0.4,0.2888889,0.94403535,0.32768777,0.0,0.5407407,0.37037036,0.34074074,0.98821795,0.36745214,0.115611196,0.53333336,0.45925927,0.3037037,0.7974963,0.34536082,0.23932253,0.43703705,0.74814814,0.34074074,0.7592047,0.3851252,0.410162,0.36296296,0.8888889,0.2962963,0.55596465,0.44182622,0.60235643,0.32592592,1.0,0.42222223,0.37628865,0.48085418,0.76435935,0.4074074,0.95555556,0.43703705,0.11340206,0.46980855,0.89248896,0.31851852,0.88148147,0.38518518,0.13622975,0.5441826,0.93667156,0.2962963,0.7777778,0.2888889,0.06480118,0.59720176,0.8932253,0.23703703,0.73333335,0.28148147,0.22238587,0.72533137,0.93667156,0.14074074,0.6074074,0.22222222,0.20250368,0.8379971,0.9896907,0.05185185,0.45925927,0.23703703,0.16421208,0.83578795,0.994109LEFT,1.0,0.30769232,0.32692307,0.9526938,0.25361368,0.0,0.61538464,0.5192308,0.21153846,0.86859393,0.44021025,0.30486202,0.5576923,0.34615386,0.07692308,0.8712221,0.60315377,0.5190539,0.44230768,0.46153846,0.0,0.95795006,0.74638635,0.6189225,0.28846154,0.48076922,0.13461539,0.911958,0.8370565,0.75032854,0.21153846,0.3653846,0.26923078,0.84231275,0.8607096,0.847569,0.23076923,0.25,0.28846154,0.8173456,0.88567674,0.9106439,0.1923077,0.23076923,0.21153846,0.88961893,0.8883049,0.892247,0.23076923,0.15384616,0.26923078,0.93429697,0.8764783,0.9159001,0.21153846,0.115384616,0.25,0.93823916,0.892247,0.9172142,0.28846154,0.07692308,0.23076923,0.95006573,0.9159001,0.9198423,0.26923078,0.13461539,0.21153846,1.0,0.9303548,0.9080158,0.26923078,0.17307693,0.25,0.9237845,0.9198423,0.913272,0.21153846,0.17307693,0.23076923,0.85808146,0.89487517,0.87779236,0.21153846,0.07692308,0.23076923,0.82260185,0.8567674,0.8081472,0.26923078,0.15384616,0.17307693,0.80946124,0.8370565,0.77398163LEFT,0.46308726,0.95302016,0.59731543,0.6477833,0.6009852,0.8429803,0.3489933,0.9127517,0.5100671,0.5320197,0.6662561,0.95258623,0.25503355,0.8993289,0.38926175,0.44458127,0.7050493,1.0,0.17449665,0.82550335,0.295302,0.3294335,0.76293105,0.9698276,0.13422818,0.60402685,0.3557047,0.54002464,0.8442118,0.8897783,0.13422818,0.7718121,0.3691275,0.51662564,0.9304187,0.9698276,0.18791947,0.68456376,0.38926175,0.26970443,0.97906405,0.91133004,0.20134228,0.22818792,0.5033557,0.019704433,0.6465517,0.8054187,0.557047,0.060402684,0.6979866,0.24076355,0.5110837,0.614532,0.67785233,0.18791947,0.67785233,0.20566502,0.34236452,0.4562808,0.7852349,0.0,0.6510067,0.25800493,0.12007389,0.20073892,0.90604025,0.06711409,0.7114094,0.60899013,0.0,0.08990148,1.0,0.5033557,0.5771812,0.8460591,0.26477832,0.093596056,0.67785233,0.6107383,0.44295302,0.6995074,0.35591134,0.22413793,0.61744964,0.5503356,0.4362416,0.6859606,0.46120688,0.38300493,0.5637584,0.5167785,0.42281878,0.6213054,0.5301724,0.46182266LEFT,0.45614034,0.7777778,0.4853801,0.6906907,0.61621624,0.58318317,0.30409357,0.94736844,0.47953215,0.55195194,0.62822825,0.67207205,0.19298245,1.0,0.3625731,0.35075074,0.612012,0.7747748,0.18128654,0.94152045,0.30994153,0.34534535,0.74714714,0.85045046,0.14035088,0.84210527,0.33918127,0.37597597,0.83243245,0.91351354,0.15789473,0.76023394,0.32748538,0.2762763,0.84324324,0.9915916,0.25146198,0.5263158,0.4269006,0.27387387,0.8948949,1.0,0.25146198,0.41520467,0.49122807,0.052852854,0.7585586,0.9129129,0.42105263,0.16374269,0.61988306,0.0,0.5081081,0.7267267,0.5906433,0.0,0.67836255,0.15135135,0.27567568,0.43843845,0.68421054,0.07017544,0.7076023,0.28648648,0.11411411,0.1921922,0.7719298,0.0877193,0.625731,0.47807807,0.01981982,0.071471475,0.86549705,0.22222222,0.57894737,0.6246246,0.093693696,0.0054054055,0.76023394,0.44444445,0.4269006,0.6024024,0.203003,0.057057057,0.6374269,0.5204678,0.39766082,0.6654655,0.3813814,0.22582583,0.5614035,0.50292397,0.41520467,0.6126126,0.48468468,0.36036035LEFT,0.4659091,0.90909094,0.375,0.6208161,0.5277396,0.60706097,0.3693182,1.0,0.3181818,0.47959653,0.62494266,0.81109583,0.2840909,0.97159094,0.21022727,0.36909676,0.74507105,0.93718475,0.1875,0.8806818,0.2840909,0.26639158,0.82118297,0.9477304,0.07954545,0.72727275,0.28977272,0.25905547,0.7854195,1.0,0.125,0.5625,0.30113637,0.1824851,0.7753324,0.9743237,0.17613636,0.42613637,0.41477272,0.2443833,0.79413116,0.9115085,0.14204545,0.3068182,0.5,0.16368638,0.6254012,0.80742776,0.4090909,0.09659091,0.58522725,0.24942687,0.45437872,0.6313618,0.5056818,0.056818184,0.57954544,0.3810179,0.3645117,0.41953233,0.52840906,0.028409092,0.60227275,0.42870244,0.24850985,0.24713434,0.64204544,0.0056818184,0.4943182,0.38972947,0.10545621,0.10912426,0.76704544,0.0,0.5,0.53507566,0.14259514,0.0,0.6193182,0.3693182,0.26704547,0.5034388,0.2352132,0.04860156,0.48295453,0.3181818,0.26136363,0.5387437,0.3640532,0.15084824,0.44886363,0.3693182,0.20454545,0.46446583,0.4681339,0.23796424LEFT,0.18888889,0.22222222,0.7111111,0.27497864,0.47993168,0.8565329,0.14444445,0.0,0.7222222,0.48334756,0.30230573,0.7147737,0.17777778,0.44444445,0.3888889,0.5542272,0.0529462,0.558497,0.3888889,0.37777779,0.34444445,1.0,0.0,0.36037576,0.5,0.9111111,0.17777778,0.7139197,0.09820666,0.15713066,0.53333336,0.64444447,0.25555557,0.8667805,0.15200683,0.14688301,0.56666666,0.82222223,0.22222222,0.7233134,0.20409906,0.1263877,0.7,0.7111111,0.3888889,0.676345,0.32280102,0.13407344,0.7,1.0,0.3888889,0.23996584,0.3620837,0.27241674,0.62222224,0.6,0.5777778,0.34842014,0.4005124,0.41332194,0.56666666,0.6333333,0.62222224,0.29205808,0.3945346,0.42442358,0.5555556,0.53333336,0.6666667,0.3262169,0.39282665,0.39197266,0.56666666,0.53333336,0.6888889,0.3706234,0.38001707,0.35695985,0.6111111,0.4888889,0.67777777,0.4286934,0.3911187,0.34244236,0.64444447,0.42222223,0.62222224,0.45260462,0.381725,0.30486763,0.7111111,0.34444445,0.7,0.5738685,0.40563622,0.1827498LEFT,0.5251397,0.81005585,0.41899443,0.594917,0.49896264,0.5803942,0.5139665,0.9497207,0.39106146,0.45954356,0.5596473,0.7157676,0.424581,1.0,0.3519553,0.36462656,0.66701245,0.88952285,0.2905028,0.91061455,0.32960895,0.26400414,0.7733402,0.97147304,0.15642458,0.7318436,0.3463687,0.30290458,0.83661824,0.9631743,0.18994413,0.7318436,0.29608938,0.27385893,0.8246888,0.9424274,0.21787709,0.424581,0.46368715,0.34906638,0.90975106,1.0,0.1396648,0.24581006,0.49162012,0.2614108,0.8708506,0.90352696,0.20111732,0.1452514,0.49720672,0.14574689,0.6078838,0.7292531,0.49720672,0.005586592,0.59217876,0.19917013,0.39056018,0.5077801,0.5363129,0.0,0.6480447,0.23599584,0.25311205,0.31379667,0.547486,0.06703911,0.5363129,0.36099586,0.08713693,0.12914938,0.72625697,0.1452514,0.49720672,0.46161824,0.0,0.037863072,0.8044693,0.30726257,0.46368715,0.6784232,0.18205394,0.08713693,0.5586592,0.51955307,0.32402235,0.6291494,0.34387967,0.2702282,0.5027933,0.41899443,0.3463687,0.6690871,0.47406638,0.4087137LEFT,0.46889952,0.861244,0.45933014,0.5354627,0.47346172,0.6242367,0.35885167,0.94736844,0.4401914,0.32597464,0.48802254,0.7477689,0.27272728,1.0,0.430622,0.17613903,0.5434476,0.82198215,0.2583732,0.93779904,0.37320575,0.14513856,0.6369187,0.89431655,0.26794258,0.76076555,0.36363637,0.14795679,0.78534526,0.9755754,0.22488038,0.71291864,0.33971292,0.2057304,0.8839831,1.0,0.215311,0.43540668,0.5167464,0.28088304,0.903241,0.91874117,0.29186603,0.27272728,0.54066986,0.0,0.6087365,0.75622356,0.4832536,0.004784689,0.72248805,0.21418506,0.39924848,0.51996243,0.5933014,0.0,0.68899524,0.33912635,0.20244247,0.276186,0.7368421,0.066985644,0.6698565,0.31423202,0.030530766,0.10051668,0.8851675,0.23923445,0.4832536,0.3701268,0.0018788164,0.037106622,0.8564593,0.28708133,0.43540668,0.58102393,0.23673086,0.06434946,0.6555024,0.4449761,0.31578946,0.38280883,0.3790512,0.15547206,0.53588516,0.48803827,0.3014354,0.31705025,0.47017378,0.21465477,0.430622,0.4258373,0.2966507,0.35415688,0.54720527,0.32832316LEFT,0.0,0.3108108,0.8783784,0.97622025,0.32415518,0.4931164,0.21621622,0.6486486,0.6621622,1.0,0.03128911,0.1864831,0.5405405,1.0,0.45945945,0.84355444,0.0,0.18898623,0.6216216,0.9324324,0.2837838,0.6620776,0.08385482,0.30913642,0.7702703,0.9189189,0.2972973,0.9073842,0.27284107,0.5406758,0.6216216,0.8783784,0.22972973,0.63704634,0.3867334,0.6795995,0.527027,0.7027027,0.3243243,0.4017522,0.50563204,0.6057572,0.5,0.5675676,0.4864865,0.5031289,0.6245307,0.50813514,0.5135135,0.6891892,0.5675676,0.47809762,0.6545682,0.45306632,0.5405405,0.6621622,0.6486486,0.41051313,0.6520651,0.44555694,0.5810811,0.5810811,0.6621622,0.43929914,0.6420526,0.49061325,0.5540541,0.5540541,0.6486486,0.67709637,0.6658323,0.57571965,0.5675676,0.5945946,0.5945946,0.68085104,0.64956194,0.62578225,0.5405405,0.5675676,0.5540541,0.60700876,0.6132666,0.6057572,0.5675676,0.5540541,0.5675676,0.6232791,0.5819775,0.59574467,0.5675676,0.5675676,0.5540541,0.5844806,0.56821024,0.58573216LEFT,0.48087433,1.0,0.34972677,0.4075369,0.53690755,0.7051282,0.39344263,0.86885244,0.36612022,0.33993784,0.6351981,0.7952603,0.2021858,0.69945353,0.33333334,0.35975137,0.69425017,0.8022533,0.17486338,0.61202186,0.30601093,0.35858586,0.72533023,0.7964258,0.27868852,0.58469945,0.24043716,0.42851594,0.82284385,0.77428126,0.3114754,0.46448088,0.30601093,0.45337996,1.0,0.8045843,0.043715846,0.420765,0.41530055,0.32789433,0.98096347,0.8418803,0.10928962,0.18032786,0.48087433,0.16899768,0.6985237,0.7688423,0.48087433,0.0054644807,0.6502732,0.31895882,0.525641,0.6169386,0.5081967,0.038251366,0.69945353,0.42657343,0.35275835,0.45221445,0.5464481,0.0,0.64480877,0.43978244,0.09324009,0.22960372,0.8852459,0.15300547,0.46994534,0.55710953,0.0,0.047008548,0.95628417,0.44808742,0.39344263,0.6336441,0.21717171,0.06099456,0.56284153,0.58469945,0.21857923,0.4020979,0.36557886,0.18764569,0.47540984,0.36065573,0.2021858,0.34459984,0.49805748,0.33100232,0.43715847,0.3169399,0.24590164,0.45804197,0.6336441,0.45843047LEFT,0.22222222,0.0952381,0.6984127,0.8496583,0.68451023,1.0,0.11111111,0.0,0.74603176,0.60364467,0.46013668,0.8177677,0.0,0.20634921,0.6031746,0.8291572,0.3553531,0.5307517,0.06349207,0.52380955,0.5873016,0.82460135,0.20387244,0.24715263,0.33333334,0.82539684,0.47619048,0.80979496,0.097949885,0.09339408,0.42857143,0.9206349,0.44444445,0.61047834,0.04214123,0.04328018,0.52380955,1.0,0.33333334,0.5296128,0.004555809,0.037585422,0.6984127,0.9047619,0.3968254,0.26082003,0.0,0.0523918,0.71428573,0.71428573,0.41269842,0.44305238,0.11503417,0.14578588,0.61904764,0.84126985,0.46031746,0.31776765,0.17539863,0.15831435,0.6666667,0.7777778,0.5873016,0.15375854,0.16970387,0.2312073,0.6666667,0.8095238,0.5714286,0.15831435,0.22095671,0.32118452,0.5873016,0.73015875,0.63492066,0.23917995,0.27220955,0.37015945,0.5873016,0.74603176,0.6507937,0.14806378,0.25056946,0.36788154,0.61904764,0.6825397,0.6666667,0.1594533,0.2425968,0.3621868,0.6507937,0.6031746,0.6825397,0.24943052,0.2596811,0.3428246LEFT,0.76373625,0.8131868,0.51648355,0.16307987,0.6140603,0.65327597,0.65384614,0.6813187,0.6098901,0.241033,0.64418936,0.76183647,0.53296703,0.6208791,0.65384614,0.25155428,0.57101864,0.78766143,0.41758242,0.47802198,0.7802198,0.41080824,0.49354374,0.8091822,0.30769232,0.35714287,0.7692308,0.7326638,0.3328551,0.8794835,0.31318682,0.26923078,0.5824176,0.73888093,0.13199426,0.892396,0.3021978,0.2747253,0.37362638,0.711143,0.0,0.7957915,0.3956044,0.25824177,0.12637363,0.79100907,0.120038256,0.66188425,0.7032967,0.23626374,0.0,0.36011478,0.31133428,0.42563367,0.8681319,0.43956044,0.043956045,0.44332856,0.5753228,0.2635103,0.9230769,0.5879121,0.2032967,0.4261119,0.8139646,0.16068867,1.0,0.67582417,0.43956044,0.4725012,1.0,0.20133907,0.9230769,0.7307692,0.67582417,0.27498806,0.89670014,0.28503108,0.6813187,0.7692308,0.7087912,0.60449547,0.80153036,0.45384982,0.5824176,0.64835167,0.74725276,0.46724054,0.6738403,0.5093257,0.53846157,0.5824176,0.7197802,0.4988044,0.60832137,0.519847CW,1.0,0.04411765,0.5735294,0.0,0.41525424,0.42372882,1.0,0.0,0.5735294,0.48728815,0.5042373,0.47033897,1.0,0.04411765,0.5588235,0.34745762,0.47881356,0.45762712,0.7794118,0.7205882,0.7352941,1.0,0.58474576,0.5127119,0.7647059,0.8088235,0.7352941,0.86864406,0.5211864,0.5042373,0.7647059,0.7647059,0.7647059,0.9576271,0.5169492,0.5042373,0.75,0.7941176,0.75,0.41525424,0.42372882,0.47033897,0.7647059,0.7794118,0.7794118,0.55508476,0.4618644,0.47033897,0.75,0.7352941,0.7647059,0.3644068,0.42372882,0.47033897,0.7647059,0.75,0.7647059,0.42372882,0.4618644,0.4279661,0.75,0.75,0.7794118,0.44915253,0.47457626,0.41949153,0.7647059,0.7647059,0.7794118,0.43644068,0.44491526,0.40677965,0.75,0.7647059,0.7794118,0.47033897,0.4279661,0.41101694,0.75,0.7794118,0.7647059,0.45762712,0.41949153,0.42372882,0.7794118,0.7647059,0.7794118,0.47457626,0.44067797,0.42372882,0.7647059,0.7794118,0.75,0.37288135,0.41101694,0.44067797CW,0.12315271,0.8817734,0.42857143,0.86485535,0.7717008,0.78369796,0.14778325,1.0,0.23152709,0.5197601,0.7724065,0.8295695,0.13300492,0.86206895,0.25123152,0.34615386,0.7395907,0.8316867,0.16748768,0.84729064,0.27586207,0.0,0.63937896,0.8376852,0.25615764,0.51724136,0.42364532,0.13302752,0.73147494,0.89414257,0.29064038,0.19211823,0.20197044,0.7558222,0.88461536,0.87050104,0.25615764,0.12315271,0.32512316,0.796048,0.83556813,0.82851094,0.27586207,0.29064038,0.26600984,0.6330275,0.800988,0.83450955,0.26108375,0.3004926,0.28078818,0.66725475,0.8129852,0.835921,0.2857143,0.14778325,0.37931034,0.60232884,0.79887086,0.8348624,0.29064038,0.13300492,0.36453202,0.5437544,0.7858151,0.8362738,0.3004926,0.0591133,0.408867,0.74100214,0.81686664,0.8330981,0.30541873,0.009852217,0.4187192,0.858151,0.83380383,0.8242766,0.31034482,0.0,0.39901477,0.8662668,0.83662665,0.8278052,0.30541873,0.014778325,0.3448276,1.0,0.85144675,0.82851094,0.27586207,0.12807882,0.2857143,0.9393084,0.84897673,0.82498235CW,0.1618497,0.9479769,0.36416185,0.9867617,0.99321115,0.9945689,0.15606937,1.0,0.2601156,0.64358455,0.9555329,0.98336726,0.1618497,0.9768786,0.2601156,0.32416835,0.8842498,0.9779362,0.19075145,0.8612717,0.46242774,0.0,0.8190767,0.97420233,0.34104046,0.01734104,0.44508672,0.81296676,0.9646979,0.98642224,0.30057803,0.26589596,0.28323698,0.8876443,0.9745417,0.9843856,0.28901735,0.34104046,0.28323698,0.93448746,0.97623897,0.9830278,0.28323698,0.30635837,0.31791908,0.9677529,0.97623897,0.99185336,0.27745664,0.33526012,0.30057803,0.9324508,0.9667345,0.99490833,0.28901735,0.30057803,0.3236994,0.92837745,0.9711473,0.9976239,0.28901735,0.2716763,0.31213874,0.8723693,0.9646979,0.9976239,0.28901735,0.2716763,0.3468208,0.96571624,0.98540395,0.98472506,0.31791908,0.23121387,0.40462428,0.7742702,0.97691786,0.9867617,0.3236994,0.1734104,0.41618496,0.8496266,0.9962661,0.98710114,0.31213874,0.09248555,0.4566474,0.82959944,0.98133063,0.98710114,0.31791908,0.0,0.49710983,0.954854,1.0,0.98268837CW,0.8648649,0.08108108,0.972973,0.8432,0.256,0.2528,0.8648649,0.0,1.0,1.0,0.2864,0.2144,0.8918919,0.2837838,0.7837838,0.7744,0.2816,0.2144,0.8648649,0.5135135,0.7027027,0.8192,0.296,0.2608,0.8648649,0.36486486,0.7567568,0.6768,0.2784,0.2336,0.8513514,0.5810811,0.7297297,0.4016,0.2656,0.224,0.8243243,0.5675676,0.6891892,0.0416,0.1776,0.2208,0.8378378,0.527027,0.6621622,0.2464,0.2288,0.216,0.8513514,0.527027,0.6216216,0.0592,0.1952,0.1936,0.8378378,0.6351351,0.5675676,0.1168,0.2112,0.2032,0.8378378,0.5675676,0.5540541,0.0,0.184,0.1808,0.8513514,0.5945946,0.5135135,0.2384,0.2208,0.2208,0.8378378,0.6351351,0.527027,0.3296,0.232,0.224,0.8243243,0.6081081,0.5405405,0.44,0.2416,0.2448,0.8378378,0.6621622,0.5540541,0.4096,0.232,0.2304,0.8243243,0.6621622,0.5945946,0.536,0.2416,0.2512CW,0.012578616,0.8553459,0.3018868,0.97140557,0.90213454,0.88240033,0.044025157,1.0,0.13207547,0.557793,0.8719291,0.9126057,0.044025157,0.9056604,0.094339624,0.36004832,0.8340717,0.90938383,0.031446543,0.8930818,0.0754717,0.0,0.75151026,0.91743857,0.1572327,0.33333334,0.3773585,0.21949255,0.815143,0.9234797,0.18238993,0.18867925,0.08805031,0.77527183,0.93354815,0.9532823,0.1509434,0.08805031,0.20125785,0.9069674,0.9279098,0.9218687,0.1572327,0.13836478,0.20125785,0.8989126,0.91904956,0.91904956,0.16981132,0.20754717,0.18238993,0.8538059,0.9126057,0.9295207,0.16352202,0.19496855,0.17610063,0.85541683,0.90213454,0.92750704,0.18238993,0.11320755,0.2264151,0.80829644,0.9009263,0.93354815,0.17610063,0.16352202,0.20125785,0.77607733,0.8968989,0.93395084,0.17610063,0.13836478,0.2264151,0.85904145,0.9134112,0.9299235,0.20754717,0.0,0.3144654,0.8944825,0.9279098,0.91904956,0.18238993,0.11320755,0.25157234,0.8687072,0.92549336,0.9162304,0.17610063,0.06918239,0.2893082,1.0,0.9403947,0.9134112CW,0.18023255,0.3604651,0.2616279,1.0,0.5891232,0.5127636,0.075581394,1.0,0.21511628,0.5329634,0.5123196,0.48967814,0.058139537,0.9011628,0.24418604,0.3227525,0.4519423,0.47857934,0.15116279,0.71511626,0.16860466,0.47302997,0.48479468,0.4899001,0.08139535,0.89534885,0.0,0.22153163,0.4608213,0.48967814,0.11046512,0.71511626,0.24418604,0.0,0.40643728,0.48213097,0.19767442,0.13953489,0.25581396,0.3145394,0.47125417,0.500111,0.23837209,0.14534883,0.19767442,0.41043285,0.50499445,0.50854605,0.18604651,0.13953489,0.21511628,0.49367368,0.5047725,0.4963374,0.20348836,0.26744187,0.18604651,0.47125417,0.49322975,0.49411765,0.22093023,0.20930232,0.19767442,0.50033295,0.5005549,0.4954495,0.20930232,0.21511628,0.18023255,0.4934517,0.4925638,0.49433962,0.20348836,0.22093023,0.19186047,0.48146504,0.49189788,0.49522752,0.20348836,0.21511628,0.20348836,0.46881244,0.49012208,0.49988902,0.19767442,0.18604651,0.22674419,0.46792454,0.4863485,0.5012209,0.20348836,0.2616279,0.24418604,0.4170921,0.47569367,0.50566036CW,0.71794873,0.08974359,0.98717946,0.91767883,0.28070176,0.12550607,0.71794873,0.0,1.0,1.0,0.2874494,0.1417004,0.71794873,0.2820513,0.8333333,0.64777327,0.19163293,0.16464238,0.7307692,0.26923078,0.65384614,0.537112,0.1902834,0.1754386,0.7307692,0.37179488,0.61538464,0.6059379,0.19838056,0.19433199,0.71794873,0.5769231,0.5897436,0.24021593,0.16194332,0.21052632,0.7307692,0.43589744,0.5769231,0.24966262,0.17004049,0.18893388,0.7307692,0.44871795,0.6025641,0.46963564,0.2240216,0.19298245,0.7051282,0.6282051,0.5897436,0.17948718,0.18893388,0.17408907,0.71794873,0.53846157,0.5897436,0.0,0.15924427,0.17004049,0.7307692,0.43589744,0.5897436,0.14304993,0.17273954,0.18623482,0.71794873,0.47435898,0.55128205,0.08636977,0.17273954,0.1565452,0.71794873,0.47435898,0.55128205,0.27260458,0.18353577,0.17678812,0.71794873,0.51282054,0.55128205,0.34952766,0.19568151,0.1848853,0.6923077,0.6282051,0.5769231,0.52361673,0.22267206,0.17273954,0.67948717,0.5897436,0.64102566,0.40350878,0.20107962,0.16734143CW,0.0,0.92715234,0.29139072,1.0,0.9168333,0.8860456,0.03311258,0.9735099,0.23178808,0.56577367,0.9048381,0.8860456,0.01986755,1.0,0.26490065,0.13154738,0.8084766,0.85085964,0.052980132,0.8874172,0.09933775,0.0,0.7469012,0.8732507,0.16556291,0.09271523,0.56953645,0.1207517,0.8112755,0.8884446,0.205298,0.11258278,0.12582782,0.8160736,0.902439,0.91163534,0.15231788,0.23178808,0.08609272,0.9008397,0.89164335,0.8812475,0.17218544,0.21192053,0.11258278,0.84886044,0.88284683,0.88164735,0.17218544,0.19205298,0.13907285,0.83486605,0.8784486,0.8920432,0.15231788,0.23178808,0.12582782,0.83286685,0.8780488,0.8952419,0.1589404,0.21854305,0.17880794,0.8272691,0.8832467,0.9004398,0.1589404,0.12582782,0.21192053,0.88364655,0.88164735,0.9004398,0.1589404,0.13245033,0.21854305,0.8844462,0.882447,0.90563774,0.1589404,0.19205298,0.1986755,0.822471,0.8780488,0.90363854,0.17880794,0.11258278,0.25165564,0.73610556,0.8732507,0.9028389,0.17880794,0.01986755,0.29139072,0.65533787,0.86765295,0.88164735CW,0.012903226,0.9870968,0.21935484,1.0,0.83768326,0.7972828,0.045161292,0.9612903,0.27096775,0.6717912,0.79370755,0.79549515,0.025806451,1.0,0.16129032,0.20808008,0.72434753,0.79549515,0.045161292,0.7741935,0.2,0.0,0.6632106,0.7761888,0.12903225,0.33548388,0.08387097,0.33893457,0.6732213,0.779049,0.21935484,0.051612902,0.2,0.63139075,0.779049,0.80765104,0.12903225,0.33548388,0.012903226,0.70003575,0.79549515,0.8122989,0.16774194,0.22580644,0.09677419,0.7776189,0.8015731,0.80371827,0.16774194,0.17419355,0.13548388,0.75938505,0.7929925,0.8005005,0.17419355,0.2,0.14838709,0.7164819,0.7786915,0.8040758,0.16774194,0.18709677,0.17419355,0.72613513,0.7651055,0.7997855,0.20645161,0.0,0.27096775,0.8012156,0.78369683,0.79120487,0.18709677,0.12903225,0.21935484,0.79227746,0.7879871,0.7929925,0.18064517,0.15483871,0.22580644,0.78405434,0.7869145,0.79335004,0.18064517,0.2,0.20645161,0.7425813,0.785842,0.8022882,0.18064517,0.16774194,0.21935484,0.6896675,0.7904898,0.80371827CW,0.74444443,0.22222222,1.0,0.0,0.26868686,0.21212122,0.75555557,0.0,0.9777778,0.8484849,0.34343433,0.1979798,0.74444443,0.17777778,0.76666665,0.9959596,0.31919193,0.24040404,0.74444443,0.2888889,0.65555555,0.610101,0.37777779,0.3070707,0.74444443,0.18888889,0.6111111,0.8242424,0.37777779,0.3131313,0.76666665,0.23333333,0.64444447,1.0,0.4040404,0.3090909,0.74444443,0.41111112,0.56666666,0.74343437,0.37171718,0.31919193,0.7222222,0.4888889,0.56666666,0.8484849,0.35959595,0.31919193,0.74444443,0.42222223,0.62222224,0.8949495,0.33535352,0.27272728,0.73333335,0.6888889,0.5555556,0.44848484,0.3090909,0.26060605,0.73333335,0.5777778,0.6,0.40202022,0.3030303,0.28282827,0.7222222,0.62222224,0.5888889,0.10707071,0.27474746,0.2868687,0.73333335,0.6111111,0.56666666,0.15555556,0.2929293,0.3090909,0.7,0.62222224,0.56666666,0.34343433,0.33737373,0.34949496,0.6333333,0.53333336,0.6333333,0.5070707,0.34343433,0.35959595,0.6,0.6333333,0.6111111,0.4888889,0.3090909,0.2949495CW,0.17877094,0.9497207,0.5083799,0.74885464,0.86422324,0.846314,0.2122905,0.96089387,0.40223464,0.455227,0.8525614,0.880883,0.19553073,1.0,0.34078214,0.0787172,0.7938359,0.8354852,0.26256984,0.7877095,0.41899443,0.0,0.7201166,0.8483965,0.31284916,0.2793296,0.44134077,0.46813828,0.82590586,0.87546855,0.32960895,0.39106146,0.26815644,0.7680133,0.89879215,0.9196168,0.30726257,0.32402235,0.33519554,0.86797166,0.88171595,0.89379424,0.32960895,0.2905028,0.3463687,0.85297793,0.8733861,0.8967097,0.32402235,0.36871508,0.29608938,0.79883385,0.86463976,0.907122,0.34078214,0.26815644,0.3575419,0.81965846,0.87296957,0.89879215,0.32960895,0.32960895,0.33519554,0.66389006,0.84798,0.8946272,0.34078214,0.26256984,0.39664805,0.77134526,0.8688047,0.8825489,0.3519553,0.20670392,0.40782124,0.60308206,0.85339445,0.88005,0.37430167,0.13407822,0.45251396,0.78883797,0.8912953,0.8796335,0.36312848,0.12849163,0.44134077,0.82215744,0.9058725,0.88046646,0.3519553,0.0,0.49162012,1.0,0.93127865,0.8837984CW,0.13612565,1.0,0.34554973,1.0,0.8459203,0.8398482,0.14659686,0.9790576,0.28795812,0.36850095,0.8049336,0.827704,0.15183246,0.93193716,0.35602096,0.0,0.711575,0.8132827,0.19371727,0.5968586,0.30890054,0.15104364,0.71119547,0.8049336,0.22513089,0.32984293,0.2460733,0.39165086,0.7749526,0.8239089,0.2670157,0.07853403,0.30890054,0.65047437,0.85426944,0.84705883,0.2303665,0.2356021,0.2722513,0.84933585,0.84705883,0.84288424,0.2408377,0.27748692,0.2722513,0.7297913,0.8296015,0.84819734,0.2722513,0.17801048,0.32460734,0.59848195,0.8159393,0.84895635,0.2670157,0.10471204,0.35602096,0.71081597,0.82125235,0.83795065,0.2670157,0.18324608,0.34031415,0.7886148,0.82694495,0.8349146,0.2670157,0.12565444,0.37696335,0.78064513,0.829222,0.83036053,0.28795812,0.041884817,0.37696335,0.7643264,0.84250474,0.83605313,0.2827225,0.09424084,0.32460734,0.87134725,0.86034155,0.85502845,0.2722513,0.083769634,0.28795812,0.85047436,0.86148006,0.85920304,0.28795812,0.0,0.28795812,0.8068311,0.85920304,0.86489564CW,0.26136363,1.0,0.3465909,0.5862797,0.75356203,0.73931396,0.29545453,0.89204544,0.30113637,0.55672824,0.7831135,0.76042217,0.30113637,0.8125,0.26704547,0.32717678,0.7503958,0.77097625,0.2840909,0.73295456,0.24431819,0.14775726,0.6997361,0.8216359,0.3693182,0.60227275,0.42045453,0.0,0.71029025,0.77941954,0.375,0.3125,0.36363637,0.67598945,0.81530344,0.8290237,0.3693182,0.35227272,0.3693182,0.6923483,0.7899736,0.8058047,0.35227272,0.38636363,0.36363637,0.6955145,0.77097625,0.80369395,0.36363637,0.38636363,0.3806818,0.646438,0.75989443,0.80791557,0.375,0.32386363,0.42045453,0.55672824,0.7440633,0.80263853,0.39204547,0.28977272,0.42045453,0.3060686,0.7197889,0.78205806,0.38636363,0.22727273,0.4943182,0.46332455,0.73509234,0.7519789,0.42045453,0.08522727,0.53409094,0.51503956,0.7424802,0.7403694,0.4318182,0.08522727,0.4943182,0.61002636,0.776781,0.75356203,0.42613637,0.0,0.4943182,0.7773087,0.808971,0.771504,0.42045453,0.0056818184,0.4375,1.0,0.82849604,0.80105543CW,0.94545454,0.0,0.6181818,1.0,0.30637255,0.32352942,0.96363634,0.054545455,0.6,0.6642157,0.16666667,0.20343137,0.90909094,0.45454547,0.3272727,0.29656863,0.063725494,0.1740196,0.94545454,0.21818182,0.47272727,0.6127451,0.125,0.1495098,0.92727274,0.47272727,0.38181818,0.6789216,0.12745099,0.13235295,0.92727274,0.72727275,0.43636364,0.46078432,0.09313726,0.05147059,0.8909091,0.6181818,0.47272727,0.43137255,0.1004902,0.04656863,0.90909094,0.6181818,0.6181818,0.7794118,0.16421568,0.05882353,0.8545455,1.0,0.6181818,0.8063725,0.19607843,0.05882353,0.8727273,0.8181818,0.7090909,0.31617647,0.11029412,0.0,0.8727273,0.8909091,0.74545455,0.33333334,0.11519608,0.080882356,0.8545455,0.90909094,0.7818182,0.53431374,0.16911764,0.15686275,0.8545455,0.92727274,0.8,0.23529412,0.12745099,0.10784314,0.8545455,0.8545455,0.8545455,0.036764707,0.063725494,0.0882353,0.8545455,0.8363636,0.8545455,0.125,0.05882353,0.09313726,0.8727273,0.8363636,0.8545455,0.080882356,0.066176474,0.068627454CW,0.19117647,0.5588235,0.5294118,1.0,0.8842645,0.9087799,0.11029412,1.0,0.15441176,0.9874572,0.8665907,0.8323831,0.14705883,0.8897059,0.27941176,0.327252,0.75712657,0.7805017,0.16176471,0.9117647,0.15441176,0.0,0.68985176,0.79304445,0.21323529,0.33088234,0.15441176,0.4709236,0.75199544,0.809008,0.18382353,0.6764706,0.0,0.5513113,0.7867731,0.7690992,0.2647059,0.30147058,0.31617647,0.3004561,0.7673888,0.8369441,0.25735295,0.38235295,0.16176471,0.6117446,0.81813,0.8768529,0.25,0.09558824,0.32352942,0.76111746,0.83067274,0.8329533,0.29411766,0.1764706,0.36764705,0.7736602,0.8255416,0.7964652,0.27941176,0.2720588,0.31617647,0.7822121,0.82326114,0.83922464,0.25735295,0.25735295,0.32352942,0.83979475,0.8289624,0.8346636,0.2720588,0.20588236,0.34558824,0.79304445,0.82839227,0.8386545,0.2720588,0.2720588,0.29411766,0.8340935,0.8420752,0.84891677,0.2647059,0.29411766,0.25735295,0.6231471,0.82383126,0.85632837,0.2647059,0.09558824,0.3602941,0.6927024,0.8323831,0.845496CW,0.9464286,0.23214285,0.91071427,0.028199567,0.1626898,0.09110629,0.91071427,0.0,0.83928573,0.35791758,0.22993493,0.07158352,0.9464286,0.10714286,0.71428573,0.13015184,0.18221258,0.0,0.96428573,0.17857143,0.5714286,0.2516269,0.22125813,0.00867679,1.0,0.25,0.42857143,0.4924078,0.1735358,0.18438178,1.0,0.23214285,0.48214287,0.61605203,0.164859,0.27765727,1.0,0.39285713,0.4642857,0.8373102,0.15618221,0.318872,0.9285714,0.51785713,0.53571427,1.0,0.16052061,0.3362256,0.91071427,0.6785714,0.5535714,0.7418655,0.112798266,0.36442515,0.83928573,0.73214287,0.625,0.4143167,0.15401301,0.19522777,0.85714287,0.75,0.625,0.43600866,0.17570499,0.10412148,0.83928573,0.83928573,0.64285713,0.34056398,0.21258135,0.11930586,0.875,0.75,0.6964286,0.42299348,0.22125813,0.14099783,0.85714287,0.875,0.75,0.46854663,0.23644252,0.14099783,0.85714287,0.8214286,0.8035714,0.39696312,0.22125813,0.14750542,0.83928573,0.875,0.8214286,0.29067245,0.20173536,0.14533623CW,0.086666666,0.87333333,0.27333334,1.0,0.9472284,0.9046563,0.08,1.0,0.12,0.72815967,0.8962306,0.8957871,0.06,0.88666666,0.12,0.47050998,0.8509978,0.9374723,0.1,0.91333336,0.15333334,0.0,0.772949,0.8851441,0.14,0.26,0.22666667,0.35299334,0.7991131,0.93569845,0.2,0.26,0.13333334,0.735255,0.87849224,0.93037695,0.18666667,0.15333334,0.23333333,0.7968958,0.9015521,0.9370288,0.23333333,0.20666666,0.22666667,0.8292683,0.9033259,0.87716186,0.21333334,0.20666666,0.21333334,0.8727273,0.9095344,0.92195123,0.22,0.10666667,0.26666668,0.9179601,0.9126386,0.9095344,0.22,0.22,0.22666667,0.89002216,0.91219515,0.91219515,0.21333334,0.22,0.22666667,0.87716186,0.90909094,0.9170732,0.21333334,0.19333333,0.24666667,0.9055432,0.9179601,0.9241685,0.20666666,0.24,0.2,0.6545454,0.8873614,0.92949003,0.19333333,0.14,0.29333332,0.724612,0.87849224,0.9392461,0.23333333,0.0,0.30666667,0.51086473,0.859867,0.91529936CW,0.83495146,0.2038835,1.0,0.14445134,0.34221947,0.35585865,0.83495146,0.097087376,0.98058254,0.2417855,0.35399875,0.32920024,0.9126214,0.0776699,0.6796116,0.0,0.34593925,0.28642282,0.8640777,0.0,0.61165047,0.5300682,0.3868568,0.33911964,0.8446602,0.1553398,0.3883495,0.43769374,0.36019838,0.35771853,0.8543689,0.2524272,0.3106796,0.533168,0.3769374,0.3818971,0.83495146,0.30097088,0.34951457,0.87104774,0.4234346,0.40793553,0.776699,0.5533981,0.4563107,1.0,0.4451333,0.4383137,0.776699,0.7378641,0.5533981,0.8536888,0.44575325,0.4116553,0.74757284,0.8543689,0.66019416,0.73031616,0.43769374,0.39057657,0.7281553,0.8252427,0.6893204,0.49535027,0.40235585,0.37259763,0.74757284,0.7669903,0.74757284,0.40235585,0.38313702,0.36205828,0.7378641,0.776699,0.7669903,0.39367637,0.38313702,0.36887786,0.74757284,0.74757284,0.7669903,0.36515808,0.37445754,0.3682579,0.7378641,0.75728154,0.75728154,0.3564786,0.3732176,0.3732176,0.75728154,0.7281553,0.7669903,0.37383756,0.3719777,0.37073776CW,0.23904383,0.76494026,0.39442232,0.9852187,0.95686275,0.95173454,0.27091634,0.7171315,0.39043826,0.8325792,0.94147813,0.94811463,0.26294822,0.8366534,0.28286853,0.5963801,0.9146305,0.9544495,0.23505977,1.0,0.41434264,0.0,0.7963801,0.95535445,0.39043826,0.17131475,0.47011954,0.8485671,0.9393665,0.95897436,0.38247013,0.37848607,0.3426295,0.76651585,0.93031675,0.9653092,0.35458168,0.3984064,0.32270917,0.85580695,0.9330317,0.97315234,0.36653388,0.30677292,0.374502,0.83951735,0.92880845,0.9674208,0.3625498,0.3306773,0.39442232,0.7755656,0.92518854,0.97073907,0.3864542,0.21513945,0.4302789,0.6687783,0.91553545,0.9544495,0.3864542,0.18326694,0.43426296,0.75022626,0.9285068,0.95022625,0.3984064,0.10358566,0.47011954,0.82262444,0.94419307,0.94358975,0.39442232,0.1434263,0.41434264,0.84313726,0.9514329,0.9363499,0.41035858,0.0,0.39043826,0.906184,0.96349925,0.933635,0.39043826,0.07569721,0.29482073,0.99607843,0.9622926,0.9306184,0.39442232,0.107569724,0.25099602,1.0,0.95987934,0.93604827CW,0.15463917,0.8556701,0.3556701,1.0,0.9494655,0.94525427,0.17010309,0.9381443,0.31958762,0.6611597,0.9112407,0.9280855,0.16494845,1.0,0.26288658,0.25332037,0.8432135,0.88921285,0.22680412,0.8402062,0.5670103,0.0,0.79170716,0.845805,0.34536082,0.05154639,0.3814433,0.71979266,0.925494,0.9510852,0.34536082,0.31443298,0.33505154,0.81341106,0.9222546,0.93262064,0.32474226,0.31958762,0.32474226,0.9057337,0.92938125,0.93974733,0.30927834,0.33505154,0.3041237,0.8551992,0.92776155,0.94849366,0.3041237,0.29896906,0.3298969,0.7852284,0.9138322,0.94590217,0.31958762,0.18041237,0.38659793,0.7408487,0.91318434,0.93909943,0.33505154,0.17010309,0.41237113,0.7787496,0.9313249,0.9378037,0.32474226,0.12371134,0.4484536,0.80919987,0.9352122,0.9329446,0.35051546,0.010309278,0.4742268,0.8558471,0.9403952,0.925494,0.34020618,0.030927835,0.4226804,0.88694525,0.9527049,0.9271137,0.34020618,0.067010306,0.36597937,0.93002915,0.9591837,0.92840946,0.3298969,0.0,0.21649484,0.77421445,0.9420149,0.89569163CW,0.9518072,0.0,0.3493976,0.21768707,0.031098153,0.022351798,0.9518072,0.19277108,0.3253012,0.55296403,0.04373178,0.077745385,0.91566265,0.38554215,0.28915662,0.6132167,0.033041786,0.10301264,0.90361446,0.60240966,0.5180723,1.0,0.04956268,0.19825073,0.8433735,0.8192771,0.6626506,0.8649174,0.09718173,0.14965986,0.8072289,1.0,0.6626506,0.44120505,0.07482993,0.085519925,0.79518074,0.8433735,0.7590361,0.20505345,0.06899903,0.04567541,0.79518074,0.8192771,0.8072289,0.113702625,0.06511176,0.024295432,0.8072289,0.8433735,0.8433735,0.093294464,0.07385811,0.03206997,0.8072289,0.8072289,0.8433735,0.042759962,0.06316812,0.023323616,0.8072289,0.8313253,0.8433735,0.0,0.05344995,0.019436346,0.8192771,0.8192771,0.85542166,0.011661808,0.044703595,0.016520893,0.8192771,0.8192771,0.8313253,0.022351798,0.041788142,0.028182702,0.8313253,0.8313253,0.8313253,0.037900876,0.033041786,0.029154519,0.8313253,0.8192771,0.8433735,0.026239067,0.031098153,0.033041786,0.8192771,0.8192771,0.8313253,0.04373178,0.03595724,0.03206997CW,0.3196347,0.99086756,0.44292238,0.7694863,0.7705086,0.7687197,0.3561644,0.8310502,0.48401827,0.69435215,0.76744187,0.76488626,0.3196347,1.0,0.369863,0.3994378,0.73370814,0.7390749,0.30593607,1.0,0.6849315,0.0,0.6514183,0.69562995,0.43835616,0.1780822,0.4155251,0.7694863,0.75594175,0.76335293,0.4063927,0.3196347,0.42922375,0.7119857,0.75721955,0.77459747,0.38812786,0.4885845,0.3607306,0.6399182,0.739586,0.77689755,0.4155251,0.40182647,0.41095892,0.61538464,0.7388193,0.77178633,0.4520548,0.3242009,0.46575344,0.56299514,0.74546385,0.76539737,0.4520548,0.27853882,0.48401827,0.5566062,0.75721955,0.76130843,0.4520548,0.18721461,0.47488585,0.5198058,0.75210834,0.7523639,0.47031963,0.0,0.46575344,0.5890621,0.76130843,0.74469715,0.4611872,0.00913242,0.40182647,0.7181191,0.78277534,0.75261945,0.44748858,0.03652968,0.34246576,0.82289803,0.787631,0.75491947,0.47488585,0.08219178,0.28767124,0.87375414,0.78507537,0.76744187,0.4977169,0.14155251,0.28310502,1.0,0.807309,0.7909532ACW,0.8471616,0.0,0.33187774,0.0,0.28458342,0.26162675,0.7991266,0.23580787,0.44978166,0.2301603,0.3114981,0.31347713,0.7947598,0.15720524,0.41048035,0.4672472,0.3540471,0.31407085,0.77729255,0.32751092,0.45414847,0.82366914,0.4161884,0.33029884,0.6855895,0.77292573,0.77729255,1.0,0.45339403,0.41183457,0.5895197,1.0,0.6899563,0.67504454,0.3983772,0.4338017,0.6419214,0.7248908,0.5720524,0.49238077,0.3809618,0.3779933,0.6462882,0.65502185,0.6375546,0.43043736,0.3714625,0.3700772,0.6637555,0.57641923,0.6855895,0.45636255,0.37561846,0.36453593,0.6768559,0.52401745,0.7161572,0.48921433,0.38769048,0.3712646,0.65502185,0.5720524,0.7510917,0.48961014,0.3888779,0.36057788,0.65065503,0.55021834,0.8253275,0.47219473,0.38353452,0.35642192,0.6419214,0.57641923,0.8951965,0.4438947,0.37680587,0.3473184,0.6157205,0.6200873,0.930131,0.390659,0.35800514,0.34237087,0.59825325,0.7860262,0.88646287,0.3437562,0.3447457,0.32831982,0.59388644,0.7991266,0.930131,0.3176331,0.33089253,0.33326736ACW,0.0,0.92105263,0.80263156,0.053304903,0.70149255,0.7761194,0.013157895,0.94736844,0.6184211,0.014925373,0.67164177,0.8123667,0.05263158,1.0,0.4473684,0.0063965884,0.69083154,0.8123667,0.078947365,0.7763158,0.38157895,0.0,0.70788914,0.91684437,0.118421055,0.69736844,0.18421052,0.24946696,0.80383795,0.8742004,0.118421055,0.55263156,0.15789473,0.6268657,0.8294243,0.91684437,0.14473684,0.5131579,0.14473684,0.663113,0.84648186,0.90618336,0.118421055,0.55263156,0.05263158,0.45842218,0.8251599,0.93603414,0.15789473,0.42105263,0.065789476,0.53304905,0.8678038,0.90191895,0.17105263,0.40789473,0.09210526,0.60554373,0.8933902,0.96162045,0.17105263,0.35526314,0.078947365,0.6204691,0.9211087,0.97228146,0.15789473,0.32894737,0.065789476,0.6076759,0.92537314,1.0,0.17105263,0.2631579,0.14473684,0.71428573,0.93603414,0.9765459,0.18421052,0.25,0.18421052,0.63539445,0.88272923,0.96588486,0.17105263,0.18421052,0.17105263,0.7185501,0.880597,0.96162045,0.21052632,0.17105263,0.21052632,0.8294243,0.90191895,0.95522386ACW,0.7842105,0.0,0.40526316,0.0,0.13169165,0.12178801,0.7842105,0.19473684,0.2736842,0.29523554,0.17826553,0.17077088,0.76842105,0.31578946,0.27894738,0.5529979,0.23554604,0.1895075,0.72105265,0.38421053,0.33684212,0.82896143,0.29122055,0.24518201,0.6052632,0.9368421,0.75789475,1.0,0.3538544,0.31397218,0.6263158,0.80526316,0.54210526,0.6078694,0.2987152,0.29362956,0.6263158,0.5,0.74210525,0.50508565,0.28399357,0.24866167,0.6263158,0.5105263,0.7736842,0.50803,0.27810493,0.22644539,0.6105263,0.55789477,0.92105263,0.41220558,0.26605996,0.20877944,0.57894737,0.6526316,0.9736842,0.2735546,0.23394005,0.18763383,0.57894737,0.7473684,1.0,0.20717345,0.20208779,0.17585653,0.5473684,0.9052632,0.95789474,0.13302998,0.17960386,0.16300857,0.5368421,0.9736842,0.91052634,0.008297645,0.15283726,0.17826553,0.5631579,0.94736844,0.79473686,0.061563168,0.1541756,0.17773019,0.5842105,0.95789474,0.70526314,0.115899354,0.16675588,0.18495718,0.58947366,0.8947368,0.65789473,0.11830835,0.17103854,0.18040685ACW,0.7644628,0.0,0.35123968,0.0,0.19843878,0.20583402,0.71487606,0.24793388,0.33471075,0.21261299,0.24424815,0.25472474,0.7107438,0.21487603,0.30991736,0.41187346,0.28677076,0.24876747,0.70247936,0.26859504,0.43801653,0.7943714,0.35188988,0.28307313,0.5785124,0.8305785,0.8140496,1.0,0.42871815,0.36955628,0.5289256,0.8636364,0.5661157,0.627157,0.36216104,0.3494248,0.59090906,0.5247934,0.6446281,0.5330731,0.34264585,0.3136812,0.61570245,0.44214877,0.7066116,0.5805259,0.34202957,0.320871,0.59504133,0.4752066,0.7644628,0.5700493,0.34141332,0.29293343,0.55785125,0.6198347,0.8636364,0.4539852,0.31594083,0.2871816,0.5165289,0.72727275,0.8719008,0.3890715,0.2890304,0.2697206,0.5,0.92561984,0.8512397,0.15324569,0.24157766,0.24404272,0.49586776,1.0,0.8305785,0.019720625,0.21199672,0.23294988,0.5082645,0.91322315,0.7768595,0.02978636,0.20932621,0.2516434,0.53305787,0.8305785,0.6404959,0.08258011,0.21959737,0.24383731,0.58264464,0.76859504,0.607438,0.101273626,0.23726377,0.25493017ACW,0.76086956,0.0,0.4304348,0.054162487,0.21524574,0.2104313,0.70869565,0.26956522,0.3173913,0.19759278,0.23711133,0.25897694,0.7173913,0.21304348,0.30869564,0.34322968,0.2569709,0.25015044,0.7,0.20869565,0.3478261,0.64914745,0.31414244,0.27061182,0.5782609,0.78695655,0.8304348,1.0,0.40421262,0.3658977,0.526087,0.9217391,0.43913043,0.4882648,0.3227683,0.3313942,0.6043478,0.5782609,0.5826087,0.4096289,0.31795385,0.28425276,0.59130436,0.5608696,0.62173915,0.44874623,0.32918757,0.30250752,0.6304348,0.45652175,0.7,0.55305916,0.34924775,0.3099298,0.62173915,0.44347826,0.73913044,0.57412237,0.3452357,0.2898696,0.5869565,0.5217391,0.8695652,0.5460381,0.3362086,0.28304914,0.5478261,0.6347826,0.8652174,0.487663,0.3097292,0.27542627,0.526087,0.9652174,0.8695652,0.2567703,0.2533601,0.25997993,0.5043478,0.98695654,0.8913044,0.08324975,0.21223672,0.2328987,0.51304346,1.0,0.8304348,0.0,0.20561685,0.24513541,0.5608696,0.9391304,0.71304345,0.033701103,0.21344031,0.25235707ACW,0.31578946,0.42105263,0.7894737,0.0,0.85346216,0.9339775,0.31578946,0.84210527,0.2631579,0.64412236,0.958132,1.0,0.31578946,1.0,0.10526316,0.69726247,0.921095,0.9919485,0.2631579,0.8947368,0.0,0.66183573,0.8921095,0.95974237,0.36842105,0.57894737,0.36842105,0.73429954,0.9098229,0.9500805,0.31578946,0.5263158,0.47368422,0.863124,0.9130435,0.94041866,0.42105263,0.68421054,0.31578946,0.8148148,0.9194847,0.9710145,0.42105263,0.42105263,0.42105263,0.92431563,0.9661836,0.99355876,0.47368422,0.21052632,0.47368422,0.942029,0.962963,0.9838969,0.47368422,0.36842105,0.42105263,0.9677939,0.94847023,0.96457326,0.5263158,0.31578946,0.31578946,0.9178744,0.9452496,0.9452496,0.42105263,0.47368422,0.42105263,0.9291465,0.958132,0.93719804,0.42105263,0.36842105,0.5263158,0.979066,0.958132,0.9388084,0.36842105,0.57894737,0.42105263,0.9178744,0.9452496,0.9452496,0.42105263,0.36842105,0.47368422,0.96135265,0.9436393,0.9452496,0.36842105,0.42105263,0.42105263,0.94847023,0.94041866,0.9436393ACW,0.7932692,0.0,0.23076923,0.0,0.2319637,0.24056378,0.7019231,0.16346154,0.33653846,0.36311513,0.2998089,0.32704252,0.6682692,0.3125,0.19711539,0.57740086,0.35690397,0.33444816,0.65384614,0.36057693,0.23557693,0.7546584,0.39178213,0.36622074,0.57211536,0.7932692,0.59615386,1.0,0.46989965,0.449355,0.47596154,0.77884614,0.57211536,0.78738654,0.47061634,0.45580506,0.5673077,0.5144231,0.5192308,0.6067845,0.4347826,0.3834209,0.5817308,0.46634614,0.66346157,0.5840898,0.40898234,0.3834209,0.58653843,0.37980768,0.75961536,0.6273292,0.40850455,0.3671763,0.55288464,0.5192308,0.84134614,0.51600575,0.38676542,0.34400383,0.52403843,0.58653843,0.8942308,0.41137123,0.3592929,0.33946487,0.52403843,0.66346157,0.91346157,0.37123746,0.34065935,0.32441473,0.5,0.8269231,0.8557692,0.29240325,0.3246536,0.3279981,0.5,1.0,0.78365386,0.16459627,0.30148113,0.32345915,0.5144231,0.84134614,0.7355769,0.20592451,0.30912566,0.330387,0.53365386,0.875,0.6394231,0.2711419,0.3170091,0.32728142ACW,0.039215688,1.0,0.19607843,0.0,0.7763158,0.82894737,0.078431375,0.60784316,0.078431375,0.3625731,0.8596491,0.94298244,0.09803922,0.5294118,0.0,0.4897661,0.87134504,0.9736842,0.11764706,0.33333334,0.039215688,0.49853802,0.90789473,0.98099416,0.1764706,0.27450982,0.09803922,0.4371345,0.88304096,1.0,0.15686275,0.05882353,0.13725491,0.748538,0.93274856,0.98976606,0.15686275,0.039215688,0.19607843,0.84502923,0.9576023,0.95467836,0.15686275,0.11764706,0.1764706,0.96783626,0.96783626,0.9605263,0.15686275,0.13725491,0.21568628,0.98976606,0.9663743,0.96198833,0.15686275,0.15686275,0.15686275,0.99415207,0.9634503,0.9707602,0.13725491,0.19607843,0.15686275,0.9736842,0.9576023,0.9707602,0.15686275,0.13725491,0.15686275,0.9649123,0.9590643,0.9722222,0.1764706,0.1764706,0.11764706,0.95614034,0.9663743,0.96929824,0.15686275,0.13725491,0.13725491,0.9502924,0.96783626,0.96929824,0.15686275,0.15686275,0.1764706,0.9722222,0.96929824,0.9663743,0.15686275,0.13725491,0.15686275,0.9576023,0.9649123,0.96198833ACW,0.7714286,0.0,0.21904762,0.0,0.368667,0.3512051,0.7285714,0.17619048,0.35714287,0.41933104,0.42031482,0.4021151,0.7380952,0.33809525,0.26190478,0.65912443,0.45523855,0.43999016,0.7047619,0.4904762,0.2952381,0.7784063,0.47171667,0.44761437,0.6666667,0.61904764,0.4952381,1.0,0.5073783,0.49532712,0.5904762,0.96666664,0.6571429,0.9183473,0.51205117,0.53148055,0.63809526,0.76666665,0.53809524,0.59468764,0.4795868,0.48450565,0.6238095,0.6,0.64761907,0.55263156,0.47270045,0.4596655,0.6238095,0.55714285,0.6857143,0.6160846,0.48524347,0.47737333,0.64761907,0.47142857,0.75714284,0.7343827,0.50909984,0.4783571,0.64285713,0.45238096,0.8238095,0.76979834,0.51549435,0.4547467,0.60952383,0.64285713,0.9095238,0.6760944,0.49311364,0.45277914,0.56666666,0.71428573,0.97619045,0.5582882,0.46974915,0.44441712,0.552381,0.85714287,0.96666664,0.39695033,0.43384162,0.4220364,0.54761904,0.96666664,0.9238095,0.24471225,0.4021151,0.41096902,0.53809524,1.0,0.8666667,0.19945893,0.38440728,0.43064436ACW,0.88584477,0.0,0.3196347,0.0,0.2858358,0.29157805,0.716895,0.22374429,0.42465752,0.30795407,0.32007656,0.36495107,0.7351598,0.26940638,0.31506848,0.50382817,0.36431307,0.35559335,0.716895,0.31506848,0.33789954,0.70523185,0.40153125,0.37388346,0.6666667,0.5479452,0.65296805,1.0,0.46809867,0.44917056,0.47031963,0.93607306,0.61187214,0.7632922,0.45342407,0.45108464,0.65296805,0.6255708,0.5479452,0.5910251,0.44300297,0.3847299,0.6392694,0.51141554,0.7123288,0.63568693,0.44385368,0.40280733,0.6484018,0.5296804,0.7579909,0.63908976,0.44917056,0.3813271,0.60730594,0.58447486,0.88584477,0.5686942,0.42683965,0.37728626,0.5936073,0.66210043,0.98173517,0.5470013,0.40706083,0.36516377,0.56164384,0.8767123,0.9269406,0.4098256,0.3751595,0.370906,0.5525114,0.96347034,0.913242,0.23202892,0.3345385,0.346661,0.55707765,1.0,0.89041096,0.16822629,0.31135687,0.3543173,0.58447486,0.9497717,0.7625571,0.20672055,0.32433006,0.36282432,0.5936073,0.9086758,0.65753424,0.21097405,0.33560187,0.3666525ACW,0.73390555,0.0,0.37768242,0.0,0.22499406,0.3100499,0.69527894,0.22317597,0.35193133,0.38655263,0.32478023,0.3544785,0.68240345,0.2446352,0.27896994,0.6284153,0.39249226,0.35899264,0.65665233,0.39055794,0.37339056,0.85578525,0.43882158,0.3815633,0.5665236,0.8111588,0.57939917,1.0,0.5138988,0.42361605,0.53218883,0.84549356,0.50214595,0.7277263,0.48895225,0.39985746,0.58798283,0.55364805,0.5965665,0.48016155,0.411024,0.36897126,0.5965665,0.46781117,0.69957083,0.58850086,0.40603468,0.3782371,0.6223176,0.45064378,0.69527894,0.7797577,0.438584,0.369684,0.5665236,0.58798283,0.8197425,0.65359944,0.4160133,0.36065573,0.5450644,0.71244633,0.888412,0.54217154,0.37942505,0.3544785,0.54077256,0.8497854,0.888412,0.35376573,0.34830126,0.3456878,0.51502144,0.9141631,0.8369099,0.2173913,0.31789023,0.34046093,0.49356222,1.0,0.832618,0.005702067,0.28201473,0.33238298,0.55364805,0.90128756,0.71244633,0.08624376,0.29175577,0.3307199,0.5665236,0.7939914,0.6180258,0.17391305,0.3216916,0.34307435ACW,0.7914438,0.0,0.24064171,0.0,0.2428653,0.2716895,0.7112299,0.12834224,0.29411766,0.355879,0.3007991,0.36415526,0.70053476,0.24598931,0.22459893,0.7711187,0.38384703,0.3821347,0.6684492,0.40106952,0.2513369,0.9663242,0.4520548,0.41952056,0.5989305,0.80748665,0.486631,1.0,0.5002854,0.4520548,0.5080214,0.80213904,0.54545456,0.78852737,0.4997146,0.4594749,0.5989305,0.54545456,0.5775401,0.6726598,0.47174656,0.38270548,0.6042781,0.44919786,0.72192514,0.70119864,0.44663242,0.39069635,0.62032086,0.44919786,0.79679143,0.7502854,0.4497717,0.3752854,0.56684494,0.5775401,0.93048126,0.58618724,0.41181508,0.36101598,0.5508021,0.69518715,1.0,0.47174656,0.38099316,0.35216895,0.54545456,0.8181818,0.96791446,0.29908675,0.350742,0.3458904,0.5240642,0.9197861,0.9251337,0.10530822,0.31792238,0.350742,0.5240642,0.9251337,0.8930481,0.06706621,0.29937214,0.3530251,0.5561497,0.87700534,0.72727275,0.20234019,0.32848173,0.36900684,0.56684494,0.78074867,0.64705884,0.28595892,0.34817353,0.38099316ACW,0.8356164,0.0,0.3607306,0.0,0.2399912,0.2399912,0.7305936,0.27853882,0.29680365,0.19973603,0.24527057,0.28354597,0.74429226,0.2283105,0.34703195,0.40783107,0.2976243,0.291465,0.716895,0.26027396,0.39269406,0.82710075,0.35943687,0.32314122,0.6347032,0.72602737,0.7123288,1.0,0.42190936,0.39551255,0.53881276,0.9086758,0.60273975,0.7091949,0.3948526,0.38605368,0.65296805,0.5525114,0.70776254,0.66454023,0.42608887,0.34711835,0.6484018,0.51598173,0.7123288,0.6234052,0.40387154,0.3442587,0.65753424,0.5479452,0.826484,0.5653322,0.38759348,0.3183018,0.60273975,0.6164383,0.9497717,0.50043994,0.3598768,0.308183,0.5936073,0.80365294,0.96347034,0.38539374,0.33326,0.2901452,0.5707763,0.96347034,0.94520545,0.20611526,0.27738672,0.2925649,0.55707765,1.0,0.94063926,0.098548174,0.25494942,0.2901452,0.57990867,0.9726027,0.8630137,0.107787065,0.25868896,0.3042235,0.60273975,0.9223744,0.716895,0.12450506,0.26990762,0.30092388,0.5981735,0.80365294,0.6849315,0.18895732,0.28024638,0.31808183ACW,0.88990825,0.0,0.24311927,0.0,0.3077217,0.31651375,0.72477067,0.20183486,0.49082568,0.32779053,0.3300841,0.3780581,0.75688076,0.30733946,0.32110092,0.47477064,0.3816896,0.39220184,0.73394495,0.29816514,0.29357797,0.7371942,0.4375,0.40883029,0.6605505,0.51376146,0.6238532,1.0,0.4938838,0.47859326,0.48165137,0.9495413,0.6788991,0.81441134,0.48776758,0.48203364,0.67431194,0.6788991,0.48623854,0.57511467,0.48509175,0.42029816,0.64220184,0.4678899,0.6834862,0.6070336,0.4678899,0.41227064,0.6559633,0.5,0.79357797,0.6146789,0.4617737,0.40634558,0.6284404,0.54587156,0.8715596,0.5970948,0.45661315,0.39296636,0.6146789,0.6972477,0.9678899,0.5124236,0.4277523,0.39162844,0.5825688,0.79816514,0.9724771,0.43597096,0.40194955,0.404052,0.5733945,0.8853211,0.93119264,0.3375382,0.37844038,0.40214068,0.5642202,1.0,0.8853211,0.2488532,0.35110855,0.3962156,0.58715594,0.98623854,0.79816514,0.24025229,0.35454893,0.3998471,0.60091746,0.88073397,0.7155963,0.3027523,0.3744266,0.3962156ACW,0.71014494,0.0,0.34299517,0.0,0.16726668,0.20936029,0.68599033,0.19806764,0.24637681,0.34311825,0.23373027,0.255054,0.68115944,0.2415459,0.2173913,0.64580446,0.30711713,0.28357795,0.6183575,0.39613527,0.42512077,1.0,0.36914983,0.33730268,0.5169082,0.9178744,0.5458937,0.9324287,0.4137358,0.38521186,0.5410628,0.77294683,0.44927537,0.5846026,0.36499584,0.32207146,0.5652174,0.46859902,0.589372,0.45444477,0.33370256,0.2866242,0.5845411,0.41545895,0.65217394,0.55884796,0.33979508,0.28856272,0.5797101,0.4299517,0.7198068,0.59651065,0.35031846,0.28025478,0.5603865,0.49758455,0.82608694,0.502077,0.32705623,0.25366935,0.531401,0.6231884,0.884058,0.4120742,0.30379397,0.26086956,0.5169082,0.71497583,0.884058,0.3295486,0.27831626,0.25090003,0.4879227,0.8888889,0.85507244,0.202437,0.24868457,0.22182222,0.4830918,1.0,0.79227054,0.050678484,0.21711437,0.23206867,0.4879227,0.9516908,0.7198068,0.0744946,0.22486846,0.2567156,0.49758455,0.90821254,0.6086956,0.1287732,0.23622265,0.26890057ACW,0.0,1.0,0.22727273,0.0,0.76704544,1.0,0.09090909,0.45454547,0.20454545,0.33295456,0.81704545,0.9965909,0.18181819,0.38636363,0.11363637,0.5409091,0.8375,0.9670454,0.18181819,0.18181819,0.20454545,0.62954545,0.8568182,0.9045454,0.25,0.11363637,0.25,0.88863635,0.89204544,0.93636364,0.25,0.25,0.29545453,0.8840909,0.9045454,0.93636364,0.25,0.20454545,0.29545453,0.9215909,0.91818184,0.9375,0.25,0.20454545,0.27272728,0.9875,0.9318182,0.9306818,0.25,0.25,0.25,0.9306818,0.9284091,0.9306818,0.25,0.27272728,0.25,0.975,0.9409091,0.93295455,0.25,0.25,0.20454545,0.9159091,0.9352273,0.94204545,0.25,0.27272728,0.25,0.9579545,0.9431818,0.94772726,0.22727273,0.25,0.25,0.92386365,0.93636364,0.9522727,0.25,0.25,0.27272728,0.95681816,0.9397727,0.95454544,0.25,0.22727273,0.25,0.92045456,0.93636364,0.95113635,0.27272728,0.25,0.22727273,0.94772726,0.93636364,0.93863636ACW,0.8505155,0.0,0.34020618,0.0,0.2651283,0.31080762,0.77835053,0.10309278,0.4226804,0.3524841,0.314575,0.35460326,0.78350514,0.33505154,0.2783505,0.5834707,0.39627972,0.3845067,0.7525773,0.3814433,0.24226804,0.7697198,0.433247,0.41276196,0.67525774,0.57731956,0.5670103,1.0,0.5010596,0.47398165,0.57731956,0.943299,0.57731956,0.8052743,0.50671065,0.45797032,0.66494846,0.742268,0.5463917,0.5792324,0.4824582,0.41676477,0.6546392,0.5515464,0.71649486,0.56581116,0.44431365,0.39839888,0.67525774,0.48453608,0.81958765,0.65010595,0.45867673,0.39557335,0.6494845,0.62886596,0.86082476,0.5851189,0.44549093,0.3875677,0.62886596,0.6030928,1.0,0.5714622,0.42641866,0.39675066,0.61340207,0.7474227,1.0,0.54768074,0.41040733,0.3915705,0.58247423,0.96391755,0.9536083,0.33035085,0.3661408,0.3805039,0.57216495,1.0,0.97938144,0.17023781,0.33152813,0.36825994,0.58762884,0.943299,0.8969072,0.25311986,0.34518483,0.37885568,0.61340207,0.97422683,0.77319586,0.27336943,0.35530964,0.36661172ACW,0.0,0.8947368,0.31578946,0.0,0.7004219,0.79113925,0.05263158,1.0,0.02631579,0.49367088,0.8037975,0.88185656,0.02631579,0.84210527,0.0,0.25527427,0.778481,0.84388185,0.05263158,0.7368421,0.0,0.10759494,0.74472576,0.8924051,0.13157895,0.21052632,0.13157895,0.43670887,0.8248945,0.9219409,0.18421052,0.28947368,0.078947365,0.4620253,0.8586498,0.9725738,0.15789473,0.21052632,0.13157895,0.6751055,0.8881857,0.9556962,0.18421052,0.10526316,0.21052632,0.8586498,0.9050633,0.9388186,0.18421052,0.13157895,0.21052632,0.84599155,0.9135021,0.93670887,0.21052632,0.15789473,0.18421052,0.8670886,0.9156118,0.9219409,0.15789473,0.10526316,0.21052632,1.0,0.92827004,0.907173,0.18421052,0.13157895,0.18421052,0.9177215,0.9177215,0.9113924,0.18421052,0.2631579,0.15789473,0.88396627,0.9177215,0.9177215,0.18421052,0.13157895,0.18421052,0.98945147,0.9198312,0.9135021,0.15789473,0.18421052,0.18421052,0.93248945,0.9177215,0.907173,0.18421052,0.28947368,0.15789473,0.89662445,0.9092827,0.9198312ACW,0.7799043,0.0,0.3923445,0.0,0.1568323,0.21376811,0.7368421,0.20574163,0.31578946,0.26190478,0.22567287,0.26552796,0.75598085,0.20095694,0.30622008,0.58514494,0.310559,0.27173913,0.6985646,0.41626793,0.4258373,0.884058,0.38328156,0.2893375,0.5980861,0.8516746,0.7703349,1.0,0.4391822,0.3395445,0.57416266,0.8995215,0.53588516,0.54244304,0.375,0.30719462,0.6172249,0.5980861,0.64593303,0.39906833,0.31754658,0.26578674,0.6411483,0.5215311,0.75119615,0.48680124,0.3087474,0.27458593,0.6555024,0.5215311,0.7799043,0.6162008,0.33695653,0.26785713,0.6172249,0.58373207,0.84689,0.51397514,0.31935817,0.26423395,0.6076555,0.7033493,0.94258374,0.4332298,0.29658386,0.25879917,0.5980861,0.7799043,0.9569378,0.36076605,0.2813147,0.27018633,0.5645933,0.8899522,0.90430623,0.18918219,0.2502588,0.26164597,0.54545456,0.9952153,0.8851675,0.009057971,0.20574534,0.2518116,0.5645933,1.0,0.784689,0.09006211,0.21713251,0.2543996,0.5645933,0.8851675,0.6937799,0.126294,0.22515528,0.25672877ACW,0.0,1.0,0.20454545,0.0,0.69525063,0.83113456,0.045454547,0.45454547,0.11363637,0.27044854,0.7730871,0.8944591,0.11363637,0.25,0.1590909,0.47229552,0.8073879,0.90897095,0.1590909,0.22727273,0.06818182,0.5646438,0.8469657,0.94327176,0.18181819,0.045454547,0.13636364,0.8271768,0.9010554,0.9340369,0.13636364,0.1590909,0.11363637,0.853562,0.91424805,0.91292876,0.13636364,0.20454545,0.18181819,1.0,0.9195251,0.9010554,0.18181819,0.20454545,0.13636364,0.8271768,0.88918203,0.90897095,0.1590909,0.1590909,0.13636364,0.9656992,0.9076517,0.9036939,0.1590909,0.18181819,0.1590909,0.88258576,0.9010554,0.9023747,0.1590909,0.20454545,0.11363637,0.92348284,0.90633243,0.90633243,0.13636364,0.13636364,0.1590909,0.84168863,0.8984169,0.90633243,0.1590909,0.1590909,0.18181819,0.8944591,0.9050132,0.9036939,0.1590909,0.18181819,0.1590909,0.8852243,0.9010554,0.9036939,0.1590909,0.1590909,0.1590909,0.93007916,0.9023747,0.9023747,0.1590909,0.1590909,0.1590909,0.91688657,0.9010554,0.8944591ACW,0.61904764,0.0,0.2761905,0.1711242,0.2669991,0.30031732,0.60952383,0.13333334,0.18095239,0.3517679,0.30553037,0.3397552,0.61904764,0.08095238,