Lable;AccX1;AccY1;AccZ1;GyrX1;GyrY1;GyrZ1;AccX2;AccY2;AccZ2;GyrX2;GyrY2;GyrZ2;AccX3;AccY3;AccZ3;GyrX3;GyrY3;GyrZ3;AccX4;AccY4;AccZ4;GyrX4;GyrY4;GyrZ4;AccX5;AccY5;AccZ5;GyrX5;GyrY5;GyrZ5;AccX6;AccY6;AccZ6;GyrX6;GyrY6;GyrZ6;AccX7;AccY7;AccZ7;GyrX7;GyrY7;GyrZ7;AccX8;AccY8;AccZ8;GyrX8;GyrY8;GyrZ8;AccX9;AccY9;AccZ9;GyrX9;GyrY9;GyrZ9;AccX10;AccY10;AccZ10;GyrX10;GyrY10;GyrZ10;AccX11;AccY11;AccZ11;GyrX11;GyrY11;GyrZ11;AccX12;AccY12;AccZ12;GyrX12;GyrY12;GyrZ12;AccX13;AccY13;AccZ13;GyrX13;GyrY13;GyrZ13;AccX14;AccY14;AccZ14;GyrX14;GyrY14;GyrZ14;AccX15;AccY15;AccZ15;GyrX15;GyrY15;GyrZ15;AccX16;AccY16;AccZ16;GyrX16;GyrY16;GyrZ16AQW;-133.0;-167.0;-27.0;-229.0;-113.0;447.0;-44.0;-169.0;-47.0;1265.0;-159.0;-329.0;-39.0;-39.0;25.0;3952.0;-515.0;-580.0;139.0;37.0;-32.0;1758.0;159.0;-915.0;15.0;38.0;9.0;2413.0;-63.0;-413.0;36.0;16.0;21.0;2331.0;-319.0;-270.0;5.0;195.0;23.0;-289.0;-171.0;513.0;26.0;138.0;54.0;-2657.0;10.0;407.0;17.0;61.0;77.0;-3157.0;199.0;306.0;-9.0;-69.0;49.0;-1287.0;124.0;-91.0;-1.0;-22.0;7.0;144.0;123.0;88.0;-6.0;-29.0;-6.0;462.0;-100.0;-64.0;-7.0;15.0;-11.0;196.0;-10.0;6.0;3.0;-11.0;1.0;-3.0;-52.0;9.0;-1.0;4.0;-3.0;101.0;7.0;2.0;1.0;-7.0;3.0;-31.0;-24.0;26.0AQW;-15.0;-80.0;-38.0;1353.0;-237.0;-56.0;-6.0;-86.0;6.0;2983.0;-184.0;-402.0;36.0;86.0;-19.0;1789.0;264.0;-442.0;7.0;-22.0;24.0;1520.0;142.0;-446.0;5.0;72.0;17.0;669.0;-41.0;-41.0;18.0;34.0;47.0;659.0;-60.0;28.0;15.0;96.0;27.0;-316.0;-82.0;251.0;15.0;49.0;34.0;-313.0;62.0;168.0;-1.0;79.0;15.0;-1133.0;33.0;114.0;1.0;26.0;25.0;-1304.0;111.0;120.0;-4.0;4.0;12.0;-806.0;4.0;-3.0;1.0;-19.0;6.0;-101.0;17.0;41.0;-2.0;-7.0;-1.0;173.0;-4.0;37.0;-1.0;2.0;-1.0;-7.0;6.0;12.0;2.0;0.0;9.0;-14.0;0.0;-5.0;0.0;0.0;0.0;41.0;-39.0;-4.0AQW;30.0;-125.0;-55.0;569.0;-152.0;-3.0;3.0;-95.0;-42.0;1963.0;-221.0;-262.0;5.0;-21.0;15.0;3347.0;239.0;-321.0;-49.0;1.0;-7.0;1018.0;-107.0;-387.0;-2.0;-26.0;35.0;1396.0;51.0;-382.0;16.0;35.0;25.0;1294.0;-101.0;-308.0;20.0;57.0;43.0;993.0;-12.0;-84.0;17.0;125.0;17.0;-49.0;-6.0;311.0;21.0;98.0;45.0;-1206.0;65.0;264.0;9.0;64.0;32.0;-1709.0;89.0;234.0;-3.0;12.0;31.0;-1314.0;76.0;37.0;-4.0;-21.0;11.0;-252.0;83.0;51.0;-8.0;5.0;-3.0;20.0;-3.0;84.0;2.0;-9.0;2.0;-50.0;-60.0;60.0;-2.0;3.0;3.0;-33.0;-24.0;66.0;3.0;-7.0;3.0;-7.0;-53.0;14.0AQW;-47.0;-174.0;-85.0;-1355.0;-481.0;151.0;-48.0;-123.0;-63.0;915.0;-349.0;-105.0;-12.0;-88.0;-5.0;2950.0;-21.0;-496.0;30.0;25.0;53.0;3106.0;419.0;-574.0;40.0;27.0;31.0;2280.0;76.0;-467.0;20.0;63.0;35.0;1527.0;-140.0;-46.0;12.0;153.0;18.0;26.0;-101.0;428.0;6.0;108.0;32.0;-1135.0;-229.0;340.0;19.0;89.0;21.0;-1371.0;-84.0;196.0;20.0;49.0;19.0;-1375.0;108.0;-159.0;12.0;25.0;7.0;-1015.0;319.0;-4.0;-18.0;-14.0;18.0;-946.0;187.0;46.0;-14.0;-31.0;15.0;-84.0;-32.0;50.0;-1.0;-17.0;3.0;185.0;-60.0;65.0;3.0;-16.0;2.0;162.0;-54.0;15.0;0.0;-4.0;-2.0;129.0;11.0;0.0AQW;-28.0;-180.0;-67.0;-1253.0;-41.0;528.0;-6.0;-84.0;-74.0;1037.0;8.0;113.0;9.0;-80.0;4.0;3093.0;221.0;-344.0;-6.0;-2.0;4.0;3243.0;-103.0;-1010.0;-30.0;-14.0;35.0;2344.0;-478.0;-825.0;15.0;16.0;13.0;2298.0;-477.0;-440.0;32.0;150.0;35.0;626.0;-9.0;358.0;26.0;176.0;38.0;-1257.0;231.0;581.0;24.0;101.0;58.0;-2408.0;48.0;414.0;11.0;31.0;39.0;-2031.0;109.0;81.0;13.0;-43.0;23.0;-490.0;130.0;-55.0;-10.0;9.0;1.0;-178.0;133.0;66.0;-5.0;-7.0;-4.0;-63.0;-21.0;3.0;0.0;-1.0;-14.0;39.0;-44.0;-23.0;5.0;-7.0;-3.0;43.0;21.0;-29.0;-4.0;2.0;5.0;-3.0;10.0;-10.0AQW;-20.0;-193.0;-76.0;-368.0;-359.0;331.0;-20.0;-123.0;-79.0;1475.0;-278.0;-242.0;10.0;-69.0;38.0;4461.0;157.0;-523.0;-26.0;91.0;-21.0;1629.0;145.0;-689.0;-1.0;-5.0;34.0;1580.0;-361.0;-582.0;40.0;-10.0;68.0;967.0;-208.0;-272.0;34.0;53.0;51.0;496.0;21.0;52.0;18.0;43.0;54.0;-282.0;138.0;326.0;4.0;105.0;20.0;-789.0;-68.0;240.0;12.0;3.0;50.0;-639.0;-34.0;134.0;10.0;36.0;20.0;-285.0;67.0;54.0;7.0;39.0;1.0;-157.0;80.0;59.0;-2.0;42.0;5.0;-804.0;136.0;73.0;-3.0;18.0;9.0;-814.0;33.0;96.0;-4.0;-18.0;14.0;-429.0;57.0;52.0;-1.0;-10.0;0.0;158.0;-37.0;57.0AQW;14.0;-200.0;-54.0;647.0;-438.0;237.0;23.0;-98.0;-62.0;2014.0;-170.0;-136.0;10.0;-95.0;41.0;3611.0;361.0;-279.0;-48.0;40.0;-15.0;1962.0;173.0;-741.0;-21.0;20.0;32.0;2064.0;-128.0;-463.0;23.0;97.0;25.0;1276.0;-188.0;-210.0;41.0;94.0;62.0;-233.0;-48.0;288.0;29.0;93.0;64.0;-1175.0;17.0;405.0;9.0;32.0;49.0;-1017.0;62.0;196.0;3.0;39.0;18.0;-455.0;-13.0;58.0;5.0;20.0;-3.0;-24.0;-8.0;-61.0;7.0;54.0;-8.0;-215.0;73.0;21.0;6.0;38.0;-9.0;-591.0;114.0;14.0;1.0;27.0;3.0;-796.0;155.0;48.0;-3.0;-7.0;13.0;-571.0;79.0;61.0;-12.0;-7.0;-1.0;-236.0;-12.0;82.0AQW;-33.0;-188.0;-83.0;-1604.0;-295.0;428.0;-6.0;-91.0;-72.0;1614.0;-11.0;119.0;0.0;-21.0;-17.0;1892.0;126.0;-78.0;-27.0;55.0;6.0;2684.0;79.0;-428.0;-21.0;-30.0;11.0;1026.0;-528.0;-447.0;7.0;-17.0;7.0;1392.0;-396.0;-571.0;21.0;-8.0;32.0;1561.0;-173.0;-503.0;16.0;11.0;41.0;1464.0;-7.0;-302.0;15.0;59.0;51.0;970.0;19.0;172.0;25.0;110.0;25.0;-9.0;-116.0;460.0;35.0;127.0;40.0;-1207.0;42.0;351.0;26.0;93.0;35.0;-1994.0;176.0;146.0;13.0;21.0;43.0;-1650.0;321.0;-80.0;-6.0;-5.0;19.0;-642.0;154.0;-24.0;-5.0;-2.0;7.0;-85.0;78.0;20.0;-5.0;1.0;-7.0;67.0;-44.0;21.0AQW;-46.0;-102.0;-117.0;-2198.0;-96.0;766.0;5.0;-117.0;-77.0;907.0;142.0;425.0;-6.0;-53.0;-48.0;2383.0;308.0;6.0;-12.0;14.0;-9.0;2858.0;299.0;-761.0;-46.0;4.0;-10.0;1245.0;-238.0;-815.0;-10.0;-50.0;8.0;1266.0;-520.0;-787.0;11.0;-20.0;30.0;1377.0;-330.0;-549.0;8.0;10.0;33.0;1192.0;-208.0;-226.0;22.0;48.0;54.0;553.0;-216.0;38.0;47.0;34.0;64.0;-271.0;-195.0;326.0;44.0;45.0;54.0;-735.0;-17.0;322.0;40.0;80.0;35.0;-691.0;307.0;333.0;20.0;36.0;33.0;-1021.0;359.0;207.0;-1.0;-3.0;43.0;-867.0;287.0;128.0;-14.0;-10.0;26.0;-702.0;132.0;53.0;-16.0;7.0;1.0;-65.0;-81.0;9.0AQW;-15.0;-122.0;-78.0;-1447.0;24.0;698.0;-15.0;-155.0;-72.0;853.0;-155.0;215.0;-29.0;-135.0;-20.0;2769.0;-19.0;-167.0;1.0;27.0;-1.0;1980.0;251.0;-932.0;-27.0;56.0;-3.0;1185.0;-154.0;-564.0;15.0;5.0;29.0;947.0;-263.0;-556.0;3.0;-7.0;35.0;1311.0;-336.0;-153.0;18.0;4.0;48.0;1474.0;118.0;7.0;21.0;92.0;43.0;700.0;-38.0;218.0;19.0;136.0;20.0;-444.0;-255.0;292.0;34.0;96.0;47.0;-1869.0;-43.0;184.0;13.0;47.0;25.0;-1954.0;234.0;75.0;-5.0;-36.0;31.0;-1087.0;302.0;28.0;-5.0;-14.0;5.0;-96.0;143.0;64.0;-1.0;-19.0;7.0;202.0;27.0;45.0;1.0;4.0;2.0;177.0;-21.0;14.0AQW;-21.0;-136.0;-77.0;470.0;-123.0;262.0;-11.0;-146.0;-21.0;2971.0;-155.0;-404.0;35.0;91.0;18.0;3853.0;186.0;-963.0;-24.0;21.0;7.0;1247.0;-102.0;-707.0;10.0;-5.0;22.0;1208.0;-332.0;-559.0;29.0;34.0;17.0;795.0;-324.0;-331.0;22.0;-11.0;52.0;964.0;-49.0;-81.0;19.0;99.0;24.0;155.0;-33.0;179.0;26.0;2.0;56.0;584.0;103.0;236.0;33.0;140.0;14.0;-1241.0;54.0;299.0;18.0;3.0;55.0;-1093.0;121.0;169.0;-1.0;40.0;23.0;-1391.0;127.0;170.0;-13.0;-28.0;32.0;-592.0;37.0;141.0;-9.0;14.0;1.0;-121.0;18.0;150.0;6.0;-7.0;4.0;-259.0;-60.0;77.0;12.0;-9.0;-3.0;266.0;70.0;-26.0AQW;-17.0;-142.0;-63.0;-94.0;-8.0;489.0;-1.0;-98.0;-33.0;1838.0;169.0;-121.0;6.0;35.0;-41.0;2352.0;274.0;-740.0;-22.0;16.0;-9.0;1634.0;67.0;-893.0;-21.0;-2.0;6.0;1098.0;-296.0;-695.0;9.0;-10.0;31.0;866.0;-264.0;-489.0;25.0;9.0;37.0;1057.0;-24.0;-241.0;27.0;40.0;37.0;1263.0;-10.0;-41.0;28.0;68.0;42.0;722.0;62.0;213.0;14.0;144.0;18.0;-971.0;-50.0;410.0;14.0;71.0;48.0;-2116.0;98.0;335.0;-2.0;20.0;36.0;-1332.0;131.0;274.0;-4.0;-16.0;24.0;-721.0;6.0;133.0;-2.0;-8.0;-1.0;101.0;6.0;89.0;7.0;3.0;-2.0;-280.0;-16.0;-11.0;4.0;-13.0;3.0;67.0;26.0;-33.0AQW;-35.0;-126.0;-45.0;598.0;-254.0;8.0;-5.0;-92.0;-17.0;2833.0;-68.0;-212.0;0.0;36.0;1.0;1956.0;-60.0;-721.0;-10.0;16.0;-10.0;531.0;58.0;-296.0;-7.0;12.0;13.0;307.0;-165.0;-92.0;19.0;5.0;8.0;1043.0;-83.0;-98.0;14.0;14.0;24.0;978.0;-59.0;-95.0;11.0;29.0;33.0;1241.0;106.0;-76.0;5.0;61.0;38.0;10.0;-106.0;7.0;8.0;77.0;32.0;-410.0;-24.0;88.0;5.0;82.0;36.0;-1394.0;-5.0;131.0;3.0;17.0;26.0;-1156.0;278.0;192.0;-9.0;13.0;7.0;-888.0;144.0;110.0;-9.0;-18.0;-5.0;-302.0;-2.0;72.0;-2.0;-8.0;-7.0;3.0;-123.0;32.0;8.0;-9.0;-7.0;19.0;-11.0;7.0AQW;9.0;-176.0;-46.0;561.0;-62.0;224.0;-7.0;-111.0;6.0;2685.0;331.0;-22.0;-11.0;58.0;-27.0;1287.0;310.0;-557.0;-26.0;64.0;-4.0;559.0;-70.0;-381.0;-2.0;15.0;11.0;935.0;-197.0;-231.0;15.0;6.0;20.0;1163.0;-98.0;-175.0;13.0;56.0;25.0;772.0;-19.0;-72.0;8.0;12.0;47.0;437.0;-73.0;-43.0;7.0;83.0;25.0;-253.0;-110.0;65.0;10.0;33.0;48.0;-536.0;67.0;210.0;2.0;96.0;12.0;-1422.0;90.0;374.0;6.0;-25.0;35.0;-1066.0;27.0;233.0;2.0;2.0;-8.0;-444.0;53.0;30.0;4.0;-33.0;2.0;102.0;99.0;-80.0;-3.0;14.0;-11.0;114.0;71.0;-64.0;-4.0;-1.0;-1.0;28.0;5.0;-9.0AQW;-3.0;-31.0;5.0;1970.0;322.0;-115.0;-18.0;-13.0;-56.0;554.0;-4.0;-505.0;-3.0;17.0;-9.0;954.0;28.0;-660.0;-7.0;11.0;4.0;407.0;-45.0;-239.0;0.0;-16.0;25.0;791.0;-48.0;-242.0;1.0;1.0;18.0;1542.0;-75.0;-219.0;16.0;46.0;35.0;1622.0;59.0;-70.0;4.0;141.0;-14.0;767.0;-29.0;190.0;16.0;135.0;23.0;-2132.0;-125.0;371.0;2.0;67.0;2.0;-2782.0;-156.0;259.0;16.0;-64.0;67.0;-1486.0;97.0;17.0;-1.0;-28.0;7.0;399.0;152.0;-79.0;0.0;-12.0;11.0;763.0;101.0;-63.0;-2.0;9.0;-4.0;322.0;27.0;-32.0;-1.0;14.0;-3.0;-28.0;8.0;3.0;-3.0;4.0;-6.0;-349.0;-21.0;29.0AQW;-35.0;-120.0;-52.0;-219.0;15.0;229.0;-12.0;-63.0;-30.0;3151.0;-17.0;-430.0;8.0;86.0;-27.0;1666.0;-30.0;-463.0;15.0;6.0;8.0;1575.0;-72.0;-495.0;3.0;-19.0;27.0;1203.0;-33.0;-197.0;5.0;1.0;29.0;1878.0;-54.0;-259.0;4.0;73.0;11.0;1633.0;-171.0;-53.0;18.0;145.0;24.0;-549.0;-101.0;223.0;17.0;130.0;45.0;-2332.0;-6.0;343.0;11.0;22.0;65.0;-2366.0;180.0;222.0;-1.0;-38.0;32.0;-656.0;92.0;55.0;-5.0;-36.0;-3.0;343.0;25.0;-13.0;7.0;19.0;-13.0;201.0;-11.0;-50.0;-5.0;8.0;-11.0;-193.0;22.0;-13.0;-3.0;-6.0;3.0;-74.0;-6.0;-18.0;-4.0;-1.0;-1.0;76.0;18.0;-30.0AQW;-68.0;-209.0;-24.0;-1035.0;53.0;1046.0;-28.0;-142.0;-43.0;1499.0;-48.0;-69.0;-7.0;-140.0;29.0;4259.0;-18.0;-970.0;19.0;105.0;-31.0;1622.0;-82.0;-1144.0;-13.0;37.0;10.0;1017.0;-110.0;-445.0;19.0;25.0;50.0;281.0;-119.0;43.0;26.0;10.0;36.0;1173.0;-121.0;-68.0;22.0;58.0;37.0;141.0;-219.0;208.0;13.0;88.0;5.0;-60.0;-111.0;159.0;23.0;71.0;27.0;-857.0;34.0;139.0;15.0;47.0;23.0;-1123.0;226.0;95.0;3.0;20.0;31.0;-947.0;217.0;89.0;-5.0;0.0;14.0;-465.0;110.0;85.0;-7.0;-9.0;4.0;-28.0;5.0;36.0;3.0;7.0;-4.0;-89.0;1.0;30.0;-2.0;-14.0;5.0;23.0;-19.0;-68.0AQW;-68.0;-187.0;-76.0;-1764.0;-3.0;1007.0;-25.0;-214.0;-15.0;2740.0;106.0;-208.0;-8.0;38.0;62.0;4114.0;33.0;-1686.0;18.0;39.0;18.0;3977.0;46.0;-1668.0;-15.0;74.0;27.0;2076.0;-127.0;-300.0;34.0;115.0;17.0;889.0;-320.0;377.0;47.0;166.0;54.0;-1426.0;-181.0;668.0;27.0;90.0;53.0;-2299.0;-21.0;381.0;10.0;18.0;48.0;-1850.0;129.0;24.0;0.0;-24.0;21.0;-684.0;137.0;-22.0;-4.0;-17.0;2.0;-126.0;35.0;-42.0;-1.0;-3.0;4.0;71.0;55.0;-16.0;-6.0;-9.0;-3.0;87.0;-47.0;-37.0;1.0;1.0;3.0;78.0;26.0;-21.0;-3.0;-4.0;-3.0;38.0;-20.0;4.0;3.0;-3.0;-2.0;-17.0;1.0;-3.0AQW;-34.0;-110.0;-43.0;292.0;-157.0;372.0;-23.0;-68.0;-15.0;1847.0;-43.0;-271.0;-34.0;-17.0;12.0;1640.0;-39.0;-608.0;1.0;10.0;0.0;1616.0;-188.0;-877.0;14.0;5.0;10.0;704.0;-224.0;-596.0;26.0;26.0;23.0;550.0;-151.0;-337.0;15.0;35.0;24.0;544.0;-89.0;-224.0;11.0;54.0;15.0;714.0;-104.0;54.0;31.0;51.0;29.0;116.0;-53.0;192.0;36.0;65.0;40.0;-304.0;101.0;351.0;28.0;74.0;34.0;-1293.0;116.0;322.0;6.0;21.0;24.0;-861.0;182.0;226.0;-1.0;8.0;15.0;-729.0;66.0;121.0;1.0;-25.0;11.0;-166.0;17.0;34.0;5.0;8.0;7.0;-66.0;53.0;26.0;-1.0;-15.0;-6.0;-68.0;-37.0;-4.0AQW;-11.0;-120.0;-27.0;880.0;-330.0;73.0;-4.0;-44.0;-20.0;1544.0;-166.0;-296.0;8.0;21.0;0.0;1587.0;58.0;-487.0;-3.0;33.0;-9.0;714.0;61.0;-379.0;6.0;-7.0;28.0;411.0;44.0;-221.0;-2.0;18.0;5.0;1156.0;2.0;-329.0;-4.0;32.0;12.0;1134.0;-315.0;-128.0;26.0;88.0;31.0;802.0;-117.0;65.0;36.0;90.0;31.0;-646.0;-109.0;278.0;37.0;75.0;42.0;-1298.0;293.0;181.0;4.0;26.0;16.0;-1466.0;100.0;147.0;-4.0;-4.0;16.0;-553.0;128.0;38.0;-5.0;-1.0;0.0;-144.0;71.0;75.0;-2.0;-9.0;-4.0;82.0;3.0;43.0;4.0;4.0;-4.0;-14.0;67.0;41.0;1.0;-2.0;4.0;-69.0;42.0;-8.0AQW;-34.0;-230.0;55.0;923.0;-254.0;124.0;0.0;-194.0;98.0;2714.0;-432.0;-357.0;23.0;-62.0;74.0;4680.0;-141.0;-452.0;12.0;107.0;-3.0;1722.0;-33.0;-379.0;-4.0;114.0;-28.0;1696.0;-79.0;-128.0;-7.0;137.0;-22.0;-329.0;-282.0;70.0;15.0;77.0;-8.0;-1301.0;-70.0;153.0;7.0;34.0;-17.0;-1056.0;84.0;102.0;12.0;11.0;0.0;-863.0;176.0;34.0;-2.0;0.0;-3.0;-262.0;126.0;15.0;-5.0;9.0;4.0;-215.0;54.0;27.0;-4.0;-8.0;0.0;15.0;-30.0;12.0;1.0;8.0;3.0;28.0;-1.0;-10.0;1.0;-4.0;-1.0;127.0;-71.0;-15.0;1.0;13.0;-11.0;239.0;-49.0;-35.0;-2.0;13.0;-10.0;-14.0;-23.0;25.0AQW;-42.0;-299.0;19.0;-243.0;144.0;66.0;-22.0;-131.0;114.0;1880.0;-83.0;-12.0;-12.0;-104.0;143.0;4511.0;-443.0;-554.0;13.0;110.0;69.0;1044.0;-430.0;-367.0;5.0;-19.0;-27.0;971.0;-442.0;-509.0;22.0;11.0;1.0;1230.0;-9.0;-262.0;-4.0;46.0;-37.0;1998.0;-71.0;214.0;6.0;144.0;-47.0;1113.0;-92.0;340.0;20.0;109.0;-39.0;-426.0;-118.0;341.0;33.0;89.0;-14.0;-1607.0;126.0;37.0;10.0;7.0;0.0;-1076.0;239.0;-81.0;-1.0;37.0;-21.0;-590.0;107.0;10.0;0.0;10.0;-4.0;-689.0;100.0;26.0;-5.0;9.0;-17.0;-271.0;79.0;-11.0;-1.0;-4.0;1.0;-465.0;18.0;-1.0;0.0;-2.0;-2.0;-17.0;-11.0;25.0AQW;16.0;-279.0;170.0;-2842.0;548.0;1047.0;-30.0;-118.0;20.0;441.0;-181.0;502.0;-12.0;-244.0;145.0;4603.0;-80.0;-563.0;-23.0;144.0;-98.0;2862.0;-654.0;-1112.0;35.0;0.0;47.0;-329.0;47.0;-639.0;9.0;28.0;-3.0;1236.0;-81.0;-112.0;-2.0;13.0;-8.0;1515.0;167.0;-106.0;-12.0;71.0;-40.0;1828.0;38.0;79.0;-21.0;125.0;-86.0;1442.0;-174.0;-20.0;6.0;138.0;-82.0;-867.0;-217.0;309.0;9.0;68.0;-59.0;-1663.0;-40.0;121.0;9.0;29.0;-18.0;-2187.0;108.0;219.0;3.0;-24.0;-3.0;-985.0;163.0;-76.0;1.0;-9.0;1.0;-591.0;59.0;6.0;2.0;-18.0;10.0;-149.0;49.0;7.0;2.0;-4.0;3.0;45.0;-16.0;-17.0AQW;-22.0;-290.0;120.0;1946.0;189.0;77.0;-12.0;-79.0;77.0;2637.0;79.0;-71.0;18.0;-56.0;187.0;5413.0;94.0;-381.0;-4.0;133.0;-9.0;-268.0;-383.0;-319.0;-10.0;-49.0;16.0;1282.0;-542.0;-331.0;5.0;85.0;4.0;1304.0;-183.0;-50.0;19.0;75.0;-53.0;1529.0;-74.0;155.0;8.0;87.0;-78.0;1275.0;33.0;157.0;1.0;129.0;-95.0;-1066.0;139.0;192.0;11.0;46.0;-36.0;-1830.0;217.0;47.0;15.0;45.0;-4.0;-2092.0;148.0;-13.0;12.0;-35.0;4.0;-634.0;144.0;-51.0;-1.0;13.0;-9.0;-292.0;25.0;-90.0;-2.0;-12.0;3.0;50.0;-16.0;-4.0;-4.0;6.0;-10.0;18.0;-29.0;-4.0;1.0;-3.0;1.0;-108.0;21.0;64.0AQW;-25.0;-209.0;82.0;244.0;278.0;330.0;-40.0;-184.0;76.0;956.0;282.0;279.0;-7.0;-170.0;168.0;6226.0;-577.0;-933.0;-15.0;56.0;-16.0;159.0;-385.0;-419.0;14.0;-23.0;18.0;1683.0;-700.0;-563.0;13.0;35.0;-2.0;2280.0;-377.0;-268.0;26.0;128.0;-49.0;1969.0;-186.0;-213.0;13.0;178.0;-57.0;-234.0;67.0;124.0;7.0;123.0;-45.0;-1911.0;199.0;177.0;0.0;28.0;-4.0;-1939.0;240.0;246.0;2.0;-10.0;-6.0;-842.0;161.0;11.0;-1.0;-2.0;-9.0;-676.0;85.0;109.0;0.0;8.0;-4.0;-407.0;31.0;44.0;-1.0;-17.0;17.0;-85.0;1.0;49.0;2.0;0.0;4.0;234.0;6.0;-36.0;-1.0;-4.0;4.0;6.0;-6.0;29.0AQW;9.0;-90.0;26.0;1387.0;29.0;-119.0;-7.0;-211.0;108.0;3451.0;-465.0;-251.0;14.0;137.0;-97.0;2490.0;-428.0;-906.0;-10.0;-25.0;28.0;-813.0;-104.0;-20.0;1.0;0.0;-5.0;1105.0;-20.0;-284.0;3.0;3.0;-3.0;2026.0;-28.0;-288.0;-3.0;92.0;-54.0;2364.0;-31.0;-330.0;-11.0;131.0;-80.0;837.0;-74.0;45.0;-3.0;127.0;-69.0;-1333.0;-20.0;157.0;-8.0;55.0;-47.0;-1887.0;55.0;231.0;5.0;20.0;-10.0;-1770.0;156.0;192.0;0.0;10.0;-13.0;-820.0;58.0;148.0;4.0;-12.0;14.0;-376.0;20.0;94.0;0.0;-4.0;-2.0;-46.0;-20.0;41.0;0.0;-19.0;2.0;57.0;9.0;-56.0;-3.0;4.0;-7.0;-164.0;-16.0;-10.0AQW;19.0;-141.0;67.0;2193.0;-450.0;-387.0;25.0;-155.0;83.0;3271.0;-437.0;-635.0;-5.0;117.0;-77.0;5109.0;-250.0;-1425.0;-11.0;49.0;-36.0;1974.0;-228.0;-494.0;-23.0;126.0;-87.0;2047.0;-116.0;-309.0;-4.0;176.0;-80.0;-1451.0;108.0;378.0;-3.0;53.0;-40.0;-2971.0;166.0;693.0;14.0;24.0;-4.0;-1629.0;55.0;149.0;-2.0;-40.0;-8.0;149.0;42.0;-126.0;-4.0;28.0;-28.0;-226.0;12.0;4.0;-3.0;-10.0;-8.0;-381.0;22.0;80.0;8.0;15.0;1.0;-720.0;73.0;136.0;3.0;-18.0;12.0;239.0;63.0;-61.0;-2.0;-5.0;-10.0;490.0;35.0;-40.0;-3.0;10.0;-14.0;10.0;55.0;39.0;1.0;-11.0;0.0;-203.0;13.0;53.0AQW;-24.0;-204.0;65.0;1326.0;-87.0;-175.0;-4.0;-128.0;92.0;2064.0;-61.0;-246.0;38.0;-12.0;201.0;5730.0;396.0;-749.0;23.0;114.0;9.0;-925.0;-2.0;96.0;12.0;-68.0;-1.0;1973.0;-76.0;-59.0;-13.0;90.0;-30.0;1708.0;-277.0;53.0;4.0;63.0;-60.0;1948.0;-320.0;-32.0;2.0;133.0;-88.0;635.0;-446.0;-268.0;11.0;103.0;-81.0;-1757.0;-25.0;-47.0;-1.0;22.0;-47.0;-2990.0;296.0;78.0;-7.0;-17.0;-4.0;-2103.0;519.0;271.0;0.0;-17.0;15.0;-601.0;338.0;158.0;1.0;-9.0;20.0;485.0;161.0;22.0;0.0;10.0;16.0;195.0;-12.0;-10.0;-3.0;-5.0;10.0;377.0;-83.0;-63.0;-5.0;12.0;-2.0;219.0;-65.0;-15.0AQW;19.0;-85.0;41.0;2195.0;311.0;298.0;-39.0;-230.0;171.0;5419.0;-609.0;-391.0;-5.0;159.0;-59.0;2561.0;-94.0;-640.0;-14.0;-58.0;63.0;334.0;-551.0;-521.0;17.0;91.0;-57.0;2683.0;-182.0;46.0;14.0;108.0;-67.0;1632.0;-279.0;-418.0;6.0;148.0;-99.0;-194.0;39.0;-1.0;1.0;81.0;-53.0;-2398.0;140.0;-91.0;-8.0;-12.0;-30.0;-2540.0;278.0;336.0;-8.0;-29.0;-17.0;-1103.0;310.0;137.0;2.0;-14.0;7.0;-376.0;189.0;113.0;-3.0;-1.0;11.0;127.0;50.0;35.0;-3.0;-3.0;9.0;86.0;-44.0;12.0;0.0;-3.0;6.0;98.0;-59.0;0.0;-1.0;3.0;0.0;146.0;-72.0;-2.0;-1.0;8.0;-4.0;-106.0;-9.0;10.0AQW;14.0;-165.0;114.0;2321.0;96.0;139.0;-17.0;-165.0;172.0;6062.0;-492.0;-640.0;-39.0;150.0;59.0;1578.0;-364.0;-193.0;-10.0;2.0;17.0;329.0;-239.0;-385.0;-3.0;42.0;-9.0;1671.0;-200.0;13.0;-5.0;60.0;-82.0;1962.0;-262.0;-65.0;-6.0;124.0;-109.0;1374.0;-303.0;-269.0;-11.0;119.0;-105.0;-1310.0;-143.0;-105.0;0.0;55.0;-35.0;-2513.0;185.0;2.0;5.0;-10.0;-10.0;-2176.0;310.0;231.0;6.0;-25.0;2.0;-482.0;250.0;183.0;-5.0;3.0;-3.0;-45.0;69.0;114.0;-1.0;-17.0;13.0;-244.0;91.0;106.0;-3.0;-6.0;8.0;112.0;34.0;-21.0;2.0;-9.0;8.0;-62.0;-6.0;-27.0;0.0;5.0;-1.0;124.0;-29.0;-47.0AQW;-48.0;-228.0;-13.0;-4521.0;-732.0;1118.0;0.0;-150.0;74.0;1251.0;-9.0;535.0;35.0;-221.0;172.0;4802.0;-351.0;-618.0;55.0;107.0;109.0;4707.0;525.0;-1196.0;23.0;-12.0;38.0;355.0;-123.0;-812.0;-12.0;42.0;-33.0;2661.0;89.0;-331.0;3.0;108.0;-34.0;1522.0;98.0;-327.0;-20.0;150.0;-60.0;333.0;-45.0;-35.0;-10.0;104.0;-52.0;-1096.0;-32.0;137.0;-5.0;28.0;-64.0;-994.0;-81.0;268.0;1.0;22.0;-50.0;-1582.0;24.0;266.0;-1.0;-3.0;-14.0;-1328.0;150.0;185.0;-2.0;-11.0;4.0;-984.0;145.0;163.0;1.0;-15.0;18.0;43.0;94.0;34.0;3.0;9.0;7.0;-211.0;-18.0;47.0;2.0;-17.0;18.0;225.0;-36.0;-62.0AQW;-5.0;-206.0;123.0;1899.0;204.0;409.0;3.0;-160.0;159.0;4705.0;-418.0;-616.0;6.0;105.0;-78.0;3772.0;-95.0;-699.0;9.0;68.0;3.0;118.0;-326.0;-540.0;-2.0;23.0;-39.0;2587.0;82.0;2.0;12.0;94.0;-55.0;2007.0;83.0;43.0;-3.0;129.0;-98.0;977.0;-150.0;-1.0;-6.0;131.0;-80.0;-1732.0;-133.0;-185.0;-13.0;37.0;-44.0;-2411.0;-66.0;-82.0;6.0;-12.0;2.0;-1808.0;237.0;33.0;-2.0;-20.0;-10.0;-581.0;65.0;244.0;-2.0;13.0;1.0;-369.0;-43.0;101.0;-6.0;-18.0;7.0;-58.0;-13.0;57.0;0.0;4.0;13.0;28.0;58.0;19.0;2.0;-5.0;4.0;100.0;35.0;24.0;5.0;4.0;3.0;-8.0;29.0;-21.0AQW;4.0;-197.0;136.0;916.0;74.0;83.0;-1.0;-46.0;35.0;398.0;40.0;-118.0;17.0;-201.0;180.0;6880.0;-14.0;-1064.0;1.0;85.0;-47.0;-695.0;56.0;-3.0;3.0;-94.0;49.0;853.0;-49.0;-105.0;5.0;0.0;0.0;843.0;-60.0;-296.0;7.0;17.0;-11.0;2057.0;-94.0;-478.0;4.0;93.0;-34.0;1381.0;4.0;-269.0;-7.0;99.0;-46.0;665.0;59.0;-13.0;-12.0;99.0;-67.0;-654.0;-69.0;194.0;-13.0;45.0;-70.0;-712.0;-138.0;164.0;-8.0;45.0;-66.0;-1579.0;-116.0;181.0;1.0;-16.0;-20.0;-1396.0;188.0;123.0;5.0;3.0;-1.0;-1122.0;230.0;191.0;3.0;-19.0;17.0;-177.0;169.0;82.0;2.0;3.0;7.0;61.0;39.0;50.0AQW;-39.0;-259.0;125.0;2170.0;-288.0;358.0;-14.0;-97.0;82.0;2818.0;-337.0;-577.0;58.0;-49.0;226.0;6227.0;179.0;-634.0;44.0;114.0;-13.0;-1474.0;167.0;-523.0;13.0;-51.0;19.0;787.0;-7.0;136.0;2.0;31.0;16.0;598.0;149.0;-94.0;-6.0;9.0;-14.0;2136.0;0.0;-72.0;-7.0;85.0;-63.0;1932.0;-72.0;-93.0;-2.0;136.0;-51.0;704.0;-145.0;-202.0;-17.0;110.0;-55.0;-1517.0;-89.0;-210.0;-11.0;62.0;-9.0;-1790.0;-149.0;32.0;-6.0;7.0;-26.0;-1549.0;0.0;333.0;11.0;0.0;-6.0;-530.0;23.0;320.0;3.0;-8.0;-11.0;-282.0;112.0;79.0;-2.0;-27.0;-1.0;138.0;63.0;8.0;0.0;8.0;-11.0;-77.0;20.0;11.0AQW;43.0;-264.0;102.0;971.0;-805.0;-309.0;31.0;-58.0;40.0;800.0;-577.0;-153.0;72.0;-167.0;159.0;6316.0;-276.0;-1020.0;-27.0;160.0;-40.0;-770.0;403.0;57.0;-12.0;-70.0;24.0;357.0;-10.0;-230.0;-9.0;42.0;-2.0;-176.0;-29.0;-45.0;0.0;-16.0;7.0;-6.0;-32.0;-38.0;4.0;-14.0;5.0;587.0;26.0;-138.0;4.0;0.0;7.0;1231.0;54.0;-174.0;-4.0;21.0;-10.0;1948.0;-12.0;-222.0;-15.0;114.0;-61.0;1317.0;-191.0;-85.0;-17.0;107.0;-54.0;173.0;-254.0;-140.0;-5.0;133.0;-64.0;-1527.0;-204.0;130.0;-2.0;22.0;-18.0;-1697.0;47.0;174.0;3.0;20.0;-25.0;-1310.0;127.0;317.0;-5.0;-27.0;-10.0;-492.0;154.0;95.0AQW;33.0;-163.0;40.0;1154.0;324.0;55.0;13.0;-126.0;96.0;5519.0;461.0;-896.0;-30.0;77.0;-13.0;-910.0;-45.0;-68.0;-4.0;27.0;26.0;584.0;-372.0;-176.0;17.0;3.0;2.0;-128.0;-187.0;32.0;10.0;-14.0;-15.0;-19.0;13.0;70.0;-14.0;5.0;-9.0;14.0;97.0;-55.0;-3.0;1.0;5.0;82.0;35.0;-45.0;6.0;0.0;5.0;-32.0;25.0;-18.0;2.0;3.0;5.0;-31.0;-14.0;13.0;0.0;2.0;3.0;-27.0;-44.0;8.0;-2.0;7.0;2.0;-31.0;-65.0;-2.0;4.0;-4.0;2.0;-4.0;-37.0;36.0;1.0;-2.0;-1.0;-7.0;-70.0;12.0;6.0;2.0;-8.0;-8.0;-50.0;35.0;3.0;-5.0;1.0;-70.0;-26.0;36.0AQW;22.0;-100.0;74.0;2284.0;-385.0;-532.0;72.0;-59.0;124.0;5040.0;91.0;-997.0;48.0;132.0;-4.0;-1005.0;232.0;-16.0;-3.0;-34.0;-3.0;507.0;0.0;-232.0;-2.0;18.0;6.0;-116.0;39.0;8.0;5.0;-4.0;2.0;74.0;46.0;10.0;1.0;9.0;1.0;123.0;-1.0;-92.0;4.0;1.0;9.0;508.0;37.0;-88.0;-7.0;14.0;3.0;645.0;-98.0;-180.0;0.0;14.0;4.0;1237.0;-127.0;-153.0;-4.0;64.0;-15.0;1002.0;-235.0;-173.0;-3.0;79.0;-69.0;1286.0;-194.0;-149.0;-9.0;103.0;-84.0;-85.0;-91.0;-1.0;-7.0;65.0;-73.0;-1012.0;53.0;74.0;-7.0;39.0;-33.0;-2227.0;136.0;318.0;0.0;-12.0;-2.0;-1330.0;197.0;235.0AQW;11.0;-80.0;58.0;1484.0;386.0;291.0;-64.0;-183.0;98.0;2223.0;-799.0;-286.0;23.0;-11.0;42.0;2691.0;311.0;-371.0;-24.0;-34.0;4.0;203.0;-773.0;-612.0;59.0;72.0;-42.0;688.0;405.0;-257.0;-12.0;11.0;-3.0;-144.0;-353.0;-171.0;-5.0;-20.0;12.0;526.0;45.0;-63.0;-16.0;6.0;-2.0;643.0;-208.0;-47.0;6.0;42.0;-4.0;457.0;-113.0;-39.0;15.0;56.0;-12.0;571.0;-36.0;32.0;10.0;54.0;-24.0;704.0;-115.0;12.0;8.0;75.0;-36.0;562.0;6.0;69.0;4.0;74.0;-42.0;-117.0;9.0;-8.0;9.0;60.0;-27.0;-1308.0;112.0;13.0;-6.0;4.0;-17.0;-846.0;45.0;-47.0;-4.0;-5.0;-14.0;-193.0;30.0;69.0AQW;-33.0;-158.0;75.0;2426.0;19.0;197.0;-42.0;-141.0;73.0;3618.0;-633.0;-497.0;-4.0;44.0;10.0;1750.0;-28.0;-292.0;15.0;-9.0;12.0;-106.0;-344.0;-614.0;23.0;21.0;7.0;546.0;-54.0;-182.0;5.0;-3.0;-1.0;-47.0;-173.0;-82.0;5.0;-14.0;2.0;352.0;-59.0;-58.0;-4.0;10.0;-6.0;928.0;-81.0;-77.0;-7.0;44.0;-14.0;1446.0;-19.0;-62.0;-2.0;93.0;-16.0;389.0;-63.0;143.0;7.0;63.0;-8.0;107.0;-105.0;161.0;3.0;67.0;-39.0;104.0;-328.0;99.0;25.0;50.0;-41.0;330.0;-127.0;-87.0;21.0;76.0;-44.0;-634.0;126.0;-158.0;21.0;43.0;4.0;-1618.0;463.0;-112.0;-13.0;8.0;0.0;-1038.0;267.0;51.0AQW;6.0;-183.0;95.0;1942.0;397.0;535.0;-38.0;-213.0;146.0;4509.0;-599.0;-440.0;7.0;128.0;-42.0;2850.0;-208.0;-402.0;-12.0;27.0;1.0;-937.0;-417.0;-762.0;10.0;2.0;-17.0;998.0;-86.0;-11.0;14.0;17.0;-13.0;-513.0;78.0;-32.0;4.0;-18.0;9.0;275.0;138.0;65.0;-2.0;2.0;-9.0;131.0;74.0;-51.0;0.0;-7.0;11.0;652.0;47.0;-86.0;-8.0;53.0;-16.0;368.0;-83.0;-106.0;0.0;28.0;20.0;-88.0;-97.0;-144.0;0.0;39.0;5.0;287.0;8.0;75.0;5.0;15.0;13.0;131.0;-90.0;45.0;6.0;55.0;-26.0;403.0;-134.0;109.0;5.0;40.0;-14.0;-207.0;-115.0;5.0;12.0;38.0;-17.0;253.0;81.0;59.0AQW;-39.0;-116.0;72.0;2068.0;154.0;63.0;-28.0;-148.0;73.0;3506.0;-666.0;-203.0;-1.0;85.0;-12.0;1338.0;-499.0;-107.0;29.0;-21.0;-8.0;-126.0;-398.0;-284.0;15.0;37.0;12.0;42.0;165.0;-130.0;-5.0;6.0;-28.0;56.0;18.0;-105.0;-4.0;14.0;-4.0;-61.0;63.0;5.0;-4.0;3.0;-3.0;-3.0;18.0;8.0;1.0;-3.0;7.0;133.0;-2.0;-81.0;5.0;-3.0;3.0;334.0;5.0;-12.0;5.0;15.0;-5.0;587.0;-42.0;-123.0;0.0;37.0;-8.0;384.0;-92.0;-38.0;3.0;43.0;-3.0;263.0;-102.0;-78.0;8.0;32.0;-5.0;180.0;43.0;39.0;3.0;34.0;-10.0;403.0;196.0;14.0;-5.0;56.0;-26.0;38.0;180.0;144.0AQW;7.0;-193.0;87.0;865.0;22.0;-281.0;6.0;-99.0;80.0;2270.0;-41.0;-266.0;15.0;-41.0;82.0;3794.0;-99.0;-191.0;-3.0;83.0;-10.0;-52.0;-45.0;270.0;5.0;-25.0;-7.0;255.0;-27.0;79.0;-6.0;3.0;-8.0;-113.0;-52.0;71.0;1.0;-2.0;-7.0;94.0;31.0;-3.0;1.0;-4.0;-1.0;23.0;28.0;-28.0;-1.0;2.0;3.0;-26.0;24.0;-10.0;4.0;1.0;2.0;-36.0;7.0;-12.0;-1.0;1.0;2.0;-15.0;-12.0;-12.0;0.0;5.0;-3.0;-22.0;10.0;8.0;-2.0;-2.0;1.0;11.0;-10.0;-5.0;3.0;0.0;0.0;-9.0;15.0;13.0;-2.0;1.0;1.0;23.0;-13.0;-19.0;-1.0;2.0;-1.0;-14.0;-11.0;17.0AQW;5.0;-120.0;93.0;1107.0;-81.0;228.0;33.0;-279.0;126.0;3942.0;-290.0;-478.0;60.0;154.0;122.0;4996.0;387.0;-799.0;-1.0;-24.0;-8.0;-727.0;-34.0;-294.0;-18.0;82.0;-6.0;384.0;3.0;-63.0;3.0;-36.0;4.0;-55.0;47.0;-40.0;4.0;26.0;-2.0;-132.0;107.0;42.0;1.0;6.0;4.0;86.0;5.0;-45.0;0.0;4.0;3.0;41.0;17.0;8.0;-1.0;0.0;1.0;32.0;-44.0;-11.0;-2.0;1.0;1.0;-39.0;-6.0;32.0;-1.0;-1.0;0.0;3.0;-9.0;-27.0;0.0;4.0;0.0;46.0;32.0;13.0;-3.0;4.0;-1.0;181.0;33.0;-30.0;-2.0;6.0;0.0;336.0;44.0;-58.0;-2.0;16.0;3.0;348.0;18.0;-125.0AQW;-97.0;23.0;-128.0;-4623.0;-3.0;134.0;-41.0;-189.0;-6.0;198.0;-788.0;575.0;-54.0;-156.0;-13.0;616.0;-1027.0;95.0;62.0;-204.0;116.0;4941.0;95.0;-208.0;-23.0;99.0;-14.0;-182.0;484.0;-899.0;15.0;-60.0;25.0;1239.0;34.0;-860.0;-11.0;62.0;18.0;510.0;-131.0;-384.0;9.0;7.0;16.0;1177.0;-15.0;8.0;8.0;119.0;-3.0;-62.0;-131.0;214.0;24.0;74.0;-4.0;-591.0;-303.0;133.0;21.0;30.0;35.0;-1175.0;-89.0;79.0;9.0;-45.0;31.0;-409.0;195.0;124.0;3.0;8.0;14.0;-359.0;229.0;201.0;0.0;6.0;-8.0;-227.0;99.0;153.0;0.0;-8.0;1.0;-100.0;7.0;37.0;-12.0;-30.0;6.0;148.0;32.0;-55.0AQW;-60.0;-192.0;-217.0;-4657.0;-520.0;60.0;-39.0;-186.0;3.0;-838.0;37.0;168.0;-36.0;-272.0;62.0;3593.0;-163.0;-170.0;23.0;76.0;151.0;4415.0;792.0;-157.0;8.0;35.0;-33.0;763.0;-70.0;-218.0;-3.0;23.0;-2.0;361.0;-256.0;193.0;18.0;-29.0;9.0;123.0;-213.0;70.0;2.0;-12.0;8.0;48.0;6.0;28.0;1.0;-17.0;12.0;241.0;-62.0;-83.0;5.0;-33.0;24.0;1007.0;133.0;-132.0;-8.0;13.0;8.0;1486.0;96.0;-178.0;-1.0;79.0;27.0;830.0;-135.0;-133.0;1.0;119.0;30.0;-556.0;-122.0;9.0;4.0;58.0;53.0;-1360.0;-153.0;106.0;0.0;19.0;8.0;-580.0;60.0;179.0;-5.0;3.0;2.0;-13.0;10.0;151.0AQW;-59.0;-97.0;-56.0;-2919.0;118.0;493.0;-5.0;-263.0;21.0;2329.0;-293.0;-202.0;-2.0;57.0;9.0;3867.0;-325.0;-926.0;16.0;-11.0;-6.0;3002.0;-226.0;-442.0;-26.0;89.0;-36.0;222.0;110.0;3.0;-1.0;-12.0;-1.0;508.0;-30.0;-74.0;18.0;-31.0;27.0;539.0;53.0;-133.0;-9.0;60.0;0.0;12.0;-43.0;23.0;9.0;-20.0;13.0;957.0;17.0;-310.0;2.0;14.0;26.0;161.0;-8.0;-68.0;1.0;-63.0;30.0;1549.0;-103.0;-375.0;-5.0;50.0;33.0;191.0;-384.0;-40.0;17.0;53.0;20.0;-277.0;-351.0;88.0;32.0;49.0;40.0;-1338.0;-146.0;287.0;35.0;27.0;15.0;-1096.0;134.0;292.0;20.0;-4.0;20.0;-211.0;236.0;3.0AQW;-17.0;-127.0;-61.0;-582.0;-23.0;-5.0;-10.0;-142.0;-14.0;3322.0;-97.0;-556.0;-15.0;84.0;-1.0;2289.0;64.0;-556.0;3.0;21.0;1.0;1160.0;-36.0;-70.0;-6.0;40.0;-17.0;-83.0;51.0;50.0;4.0;-14.0;6.0;304.0;55.0;-55.0;11.0;-56.0;34.0;1060.0;90.0;-334.0;2.0;-16.0;11.0;1945.0;119.0;-347.0;-3.0;57.0;6.0;1982.0;23.0;-293.0;3.0;148.0;5.0;155.0;-71.0;184.0;10.0;130.0;49.0;-1492.0;-19.0;247.0;12.0;91.0;41.0;-1878.0;87.0;288.0;-7.0;28.0;24.0;-1726.0;-53.0;204.0;-7.0;-22.0;15.0;-678.0;-73.0;188.0;-7.0;-12.0;12.0;-709.0;-124.0;181.0;8.0;-39.0;8.0;392.0;39.0;-13.0AQW;-33.0;-169.0;-48.0;-572.0;-354.0;522.0;-4.0;-152.0;-32.0;1785.0;-115.0;-139.0;8.0;-21.0;17.0;2945.0;500.0;-487.0;11.0;38.0;-16.0;1417.0;387.0;-751.0;-8.0;29.0;15.0;815.0;128.0;-354.0;-2.0;-28.0;28.0;1283.0;7.0;-224.0;12.0;25.0;30.0;985.0;-212.0;-279.0;12.0;54.0;36.0;799.0;-46.0;-38.0;19.0;79.0;31.0;-245.0;-72.0;244.0;15.0;71.0;22.0;-217.0;79.0;139.0;6.0;72.0;23.0;-814.0;66.0;158.0;-4.0;46.0;14.0;-859.0;-14.0;28.0;-6.0;30.0;7.0;-772.0;53.0;45.0;-5.0;-2.0;-1.0;-378.0;-34.0;-7.0;1.0;18.0;-7.0;164.0;53.0;45.0;-3.0;32.0;-11.0;-17.0;-33.0;47.0AQW;-35.0;-178.0;-57.0;-217.0;50.0;290.0;-17.0;-190.0;7.0;3720.0;91.0;-416.0;4.0;93.0;0.0;3542.0;63.0;-1225.0;4.0;19.0;0.0;1506.0;-96.0;-436.0;-10.0;22.0;5.0;189.0;-141.0;27.0;7.0;-31.0;11.0;1215.0;-141.0;-180.0;9.0;-6.0;48.0;752.0;34.0;-176.0;12.0;22.0;61.0;984.0;35.0;-108.0;9.0;68.0;48.0;1.0;-95.0;163.0;4.0;79.0;13.0;495.0;-72.0;146.0;4.0;108.0;-13.0;-71.0;-186.0;128.0;5.0;87.0;2.0;-922.0;-61.0;101.0;9.0;72.0;9.0;-1421.0;-10.0;38.0;2.0;-4.0;12.0;-939.0;146.0;6.0;1.0;11.0;-7.0;-141.0;141.0;7.0;-3.0;-6.0;-7.0;25.0;21.0;23.0AQW;-46.0;-204.0;-146.0;-4869.0;-12.0;846.0;-25.0;-155.0;-28.0;-142.0;-207.0;74.0;-29.0;-315.0;47.0;3952.0;-442.0;-176.0;23.0;58.0;117.0;5876.0;133.0;-1170.0;-4.0;-42.0;42.0;2209.0;201.0;-396.0;-2.0;146.0;4.0;1719.0;-19.0;-188.0;10.0;75.0;40.0;250.0;-150.0;316.0;14.0;153.0;14.0;-743.0;-57.0;290.0;2.0;72.0;2.0;-995.0;-88.0;105.0;14.0;68.0;5.0;-1093.0;-12.0;-71.0;2.0;51.0;-18.0;-1143.0;-15.0;6.0;-3.0;-3.0;11.0;-1257.0;42.0;73.0;-9.0;-22.0;2.0;-91.0;3.0;-2.0;-1.0;-20.0;10.0;0.0;-3.0;5.0;2.0;10.0;3.0;379.0;72.0;-40.0;3.0;14.0;-8.0;-285.0;-46.0;8.0AQW;-34.0;-53.0;-78.0;-2996.0;321.0;411.0;38.0;-281.0;16.0;858.0;-70.0;-306.0;-51.0;-52.0;40.0;4908.0;-181.0;-1168.0;35.0;-181.0;63.0;4896.0;-92.0;-812.0;-64.0;81.0;-34.0;3842.0;214.0;-318.0;21.0;133.0;22.0;2928.0;138.0;175.0;-16.0;259.0;-38.0;-68.0;-339.0;631.0;25.0;173.0;31.0;-3703.0;-337.0;306.0;-1.0;68.0;19.0;-3184.0;-157.0;-172.0;10.0;-9.0;39.0;-2283.0;60.0;-273.0;4.0;0.0;24.0;-166.0;156.0;76.0;-3.0;3.0;5.0;-94.0;2.0;39.0;2.0;-23.0;7.0;340.0;107.0;24.0;1.0;-3.0;-1.0;-173.0;3.0;21.0;4.0;-16.0;11.0;344.0;15.0;-69.0;-1.0;21.0;-6.0;-473.0;-24.0;82.0AQW;-49.0;-135.0;-96.0;-3174.0;198.0;26.0;5.0;-216.0;-19.0;-446.0;-564.0;191.0;-5.0;-234.0;45.0;5706.0;-550.0;-905.0;24.0;-64.0;41.0;3637.0;-307.0;-218.0;-34.0;69.0;5.0;1731.0;240.0;-393.0;-21.0;-24.0;13.0;2372.0;-320.0;-51.0;-4.0;85.0;21.0;2028.0;-232.0;200.0;35.0;63.0;44.0;1332.0;-80.0;367.0;53.0;196.0;33.0;-1611.0;63.0;403.0;34.0;82.0;32.0;-1929.0;281.0;-35.0;-2.0;85.0;-18.0;-2217.0;221.0;-223.0;-6.0;-13.0;12.0;-1595.0;191.0;-113.0;0.0;17.0;9.0;-846.0;87.0;110.0;-6.0;-40.0;9.0;352.0;17.0;102.0;1.0;18.0;-4.0;408.0;91.0;80.0;6.0;11.0;-4.0;-249.0;38.0;186.0AQW;-52.0;-150.0;-14.0;-780.0;-685.0;13.0;-10.0;-211.0;28.0;2029.0;-254.0;126.0;-2.0;-3.0;152.0;4994.0;296.0;253.0;41.0;-2.0;-8.0;1495.0;297.0;-273.0;9.0;3.0;5.0;1867.0;-61.0;-243.0;5.0;5.0;19.0;2216.0;-104.0;-5.0;11.0;100.0;-30.0;1832.0;55.0;213.0;11.0;201.0;-26.0;21.0;-168.0;7.0;-3.0;158.0;-2.0;-2272.0;-92.0;-20.0;-8.0;79.0;50.0;-3722.0;-184.0;-205.0;-15.0;-67.0;77.0;-1947.0;246.0;-70.0;-5.0;-48.0;26.0;-513.0;8.0;278.0;4.0;-48.0;17.0;1609.0;170.0;-128.0;-12.0;5.0;-45.0;883.0;-114.0;189.0;2.0;49.0;-19.0;61.0;14.0;-27.0;-9.0;44.0;-21.0;-330.0;-98.0;239.0AQW;-3.0;-232.0;-93.0;528.0;-377.0;157.0;-31.0;-161.0;-11.0;1212.0;-479.0;-267.0;53.0;-191.0;164.0;8454.0;-807.0;-518.0;-43.0;106.0;39.0;-404.0;10.0;-388.0;0.0;-35.0;3.0;442.0;-428.0;-40.0;19.0;-42.0;35.0;299.0;-262.0;-19.0;18.0;-32.0;13.0;1233.0;49.0;-163.0;0.0;3.0;16.0;1963.0;112.0;-246.0;8.0;108.0;-10.0;1921.0;-71.0;-132.0;25.0;131.0;24.0;485.0;-30.0;206.0;36.0;225.0;3.0;-1003.0;95.0;91.0;20.0;100.0;25.0;-2690.0;120.0;123.0;7.0;38.0;24.0;-2315.0;327.0;-15.0;-26.0;-67.0;19.0;-1539.0;167.0;206.0;-11.0;-29.0;11.0;140.0;100.0;88.0;-8.0;-8.0;-1.0;376.0;-85.0;20.0AQW;-34.0;-258.0;14.0;1413.0;-340.0;149.0;-19.0;-197.0;38.0;4853.0;-842.0;-132.0;-11.0;-25.0;127.0;4195.0;-345.0;39.0;3.0;34.0;2.0;1296.0;-36.0;-234.0;11.0;8.0;36.0;1347.0;-50.0;-155.0;16.0;51.0;23.0;1480.0;-79.0;31.0;0.0;115.0;27.0;84.0;-122.0;211.0;4.0;109.0;20.0;-731.0;-218.0;228.0;12.0;67.0;27.0;-809.0;-96.0;90.0;12.0;42.0;2.0;-279.0;-57.0;16.0;21.0;75.0;-16.0;-600.0;42.0;84.0;15.0;40.0;-3.0;-1054.0;208.0;-38.0;10.0;8.0;16.0;-1117.0;260.0;-55.0;-12.0;-43.0;11.0;-175.0;175.0;-86.0;-5.0;-4.0;1.0;150.0;-18.0;-28.0;0.0;8.0;-8.0;72.0;-46.0;-56.0AQW;-62.0;-155.0;-225.0;-4862.0;104.0;666.0;-23.0;-207.0;-48.0;-400.0;71.0;400.0;-43.0;-253.0;45.0;2960.0;-115.0;-175.0;19.0;-60.0;169.0;7338.0;-169.0;-1262.0;-11.0;80.0;-22.0;3990.0;-362.0;-919.0;19.0;94.0;19.0;2615.0;-230.0;-311.0;29.0;181.0;6.0;53.0;-191.0;587.0;24.0;192.0;57.0;-2401.0;-19.0;290.0;15.0;87.0;28.0;-3093.0;-36.0;256.0;4.0;-2.0;43.0;-2455.0;158.0;-81.0;4.0;-68.0;18.0;-540.0;203.0;98.0;-1.0;-14.0;10.0;419.0;148.0;-16.0;2.0;18.0;-5.0;416.0;-24.0;-60.0;1.0;21.0;-9.0;-68.0;-24.0;-43.0;-4.0;-2.0;-3.0;-208.0;-65.0;11.0;1.0;-4.0;8.0;-110.0;21.0;36.0AQW;-24.0;-247.0;49.0;-740.0;-74.0;402.0;-24.0;-220.0;35.0;1435.0;-393.0;-85.0;15.0;-66.0;97.0;6017.0;-307.0;-852.0;16.0;123.0;-45.0;1043.0;-65.0;-532.0;9.0;22.0;15.0;1628.0;232.0;-217.0;1.0;11.0;21.0;2301.0;87.0;21.0;-20.0;92.0;-150.0;2782.0;-409.0;396.0;-22.0;253.0;-61.0;-1515.0;-465.0;447.0;21.0;141.0;-31.0;-3047.0;-45.0;123.0;21.0;55.0;123.0;-3569.0;497.0;-278.0;28.0;-74.0;26.0;-325.0;396.0;-239.0;-13.0;-4.0;5.0;-43.0;27.0;97.0;-3.0;-19.0;8.0;127.0;-8.0;22.0;-2.0;-11.0;4.0;148.0;-3.0;-7.0;-2.0;-5.0;10.0;10.0;18.0;31.0;3.0;1.0;14.0;158.0;-5.0;49.0AQW;-85.0;-247.0;40.0;-1967.0;-23.0;819.0;0.0;-298.0;31.0;1809.0;-233.0;49.0;8.0;-114.0;119.0;5787.0;-183.0;-431.0;42.0;85.0;-71.0;1816.0;-96.0;-643.0;-33.0;84.0;-34.0;490.0;-80.0;-180.0;8.0;-2.0;14.0;188.0;-101.0;-65.0;9.0;-27.0;35.0;1580.0;226.0;-299.0;-17.0;65.0;2.0;533.0;-259.0;-6.0;3.0;36.0;24.0;383.0;-190.0;4.0;14.0;95.0;-3.0;-855.0;-151.0;140.0;33.0;9.0;46.0;-937.0;324.0;32.0;-3.0;27.0;25.0;-758.0;320.0;-28.0;-10.0;9.0;26.0;-53.0;82.0;-1.0;-11.0;1.0;11.0;122.0;-60.0;-57.0;8.0;2.0;15.0;-154.0;-40.0;108.0;1.0;-5.0;12.0;-385.0;-94.0;-13.0AQW;8.0;101.0;-18.0;-403.0;-252.0;-491.0;2.0;44.0;-8.0;-1896.0;-5.0;-184.0;-6.0;-11.0;-4.0;-1672.0;440.0;319.0;-17.0;-31.0;-1.0;-1840.0;417.0;449.0;5.0;-49.0;44.0;-978.0;24.0;87.0;-7.0;-63.0;38.0;986.0;-232.0;-25.0;5.0;-26.0;11.0;1384.0;-782.0;85.0;3.0;7.0;-17.0;1447.0;-965.0;-8.0;51.0;14.0;-18.0;399.0;-366.0;124.0;43.0;-19.0;-1.0;-198.0;360.0;-106.0;35.0;-16.0;-3.0;-436.0;797.0;-153.0;7.0;-14.0;1.0;-290.0;448.0;-280.0;-3.0;34.0;11.0;59.0;164.0;-273.0;14.0;-1.0;14.0;226.0;18.0;-79.0;-1.0;28.0;3.0;-180.0;-35.0;-117.0;3.0;-14.0;8.0;-80.0;-55.0;-4.0AQW;-64.0;-264.0;169.0;-4183.0;1117.0;1639.0;-36.0;-140.0;25.0;1200.0;-187.0;577.0;-41.0;-207.0;98.0;2925.0;-497.0;-476.0;40.0;99.0;-112.0;4435.0;-1054.0;-1634.0;0.0;-19.0;46.0;-928.0;-32.0;-812.0;-10.0;-35.0;-7.0;2484.0;-289.0;-254.0;-4.0;50.0;4.0;896.0;-430.0;-193.0;16.0;66.0;-27.0;1863.0;-345.0;9.0;29.0;136.0;-24.0;-10.0;-84.0;-28.0;22.0;73.0;-27.0;-408.0;245.0;-41.0;5.0;98.0;-12.0;-1501.0;322.0;5.0;-4.0;20.0;-13.0;-1046.0;212.0;82.0;-6.0;37.0;0.0;-1046.0;64.0;150.0;-6.0;-20.0;-8.0;-196.0;4.0;109.0;1.0;0.0;-5.0;-215.0;-32.0;64.0;-2.0;-5.0;-13.0;342.0;44.0;-40.0AQW;-23.0;-150.0;-119.0;-5364.0;-266.0;511.0;-31.0;-184.0;51.0;1297.0;-202.0;177.0;-13.0;-132.0;47.0;2139.0;-100.0;-341.0;19.0;-33.0;170.0;5653.0;311.0;-394.0;22.0;31.0;-2.0;-1462.0;196.0;-171.0;7.0;-77.0;20.0;1018.0;44.0;-138.0;-3.0;42.0;-4.0;-281.0;-93.0;-125.0;2.0;9.0;-3.0;394.0;-21.0;-60.0;3.0;14.0;-2.0;168.0;37.0;27.0;7.0;9.0;8.0;367.0;74.0;92.0;0.0;17.0;15.0;47.0;-34.0;34.0;5.0;9.0;12.0;171.0;-44.0;69.0;-2.0;30.0;4.0;-543.0;-97.0;-79.0;3.0;1.0;-1.0;-17.0;-22.0;11.0;0.0;10.0;-3.0;-299.0;-53.0;-119.0;3.0;-5.0;1.0;431.0;-3.0;-1.0