Lable;AccX1;AccY1;AccZ1;GyrX1;GyrY1;GyrZ1;AccX2;AccY2;AccZ2;GyrX2;GyrY2;GyrZ2;AccX3;AccY3;AccZ3;GyrX3;GyrY3;GyrZ3;AccX4;AccY4;AccZ4;GyrX4;GyrY4;GyrZ4;AccX5;AccY5;AccZ5;GyrX5;GyrY5;GyrZ5;AccX6;AccY6;AccZ6;GyrX6;GyrY6;GyrZ6;AccX7;AccY7;AccZ7;GyrX7;GyrY7;GyrZ7;AccX8;AccY8;AccZ8;GyrX8;GyrY8;GyrZ8;AccX9;AccY9;AccZ9;GyrX9;GyrY9;GyrZ9;AccX10;AccY10;AccZ10;GyrX10;GyrY10;GyrZ10;AccX11;AccY11;AccZ11;GyrX11;GyrY11;GyrZ11;AccX12;AccY12;AccZ12;GyrX12;GyrY12;GyrZ12;AccX13;AccY13;AccZ13;GyrX13;GyrY13;GyrZ13;AccX14;AccY14;AccZ14;GyrX14;GyrY14;GyrZ14;AccX15;AccY15;AccZ15;GyrX15;GyrY15;GyrZ15;AccX16;AccY16;AccZ16;GyrX16;GyrY16;GyrZ16AQW;49.0;-144.0;-136.0;-3149.0;411.0;-281.0;7.0;-70.0;-56.0;1275.0;152.0;174.0;19.0;-48.0;49.0;6470.0;207.0;342.0;-38.0;134.0;44.0;4051.0;-331.0;413.0;-3.0;5.0;-15.0;1111.0;-124.0;-37.0;-4.0;-50.0;29.0;961.0;-156.0;89.0;-2.0;-12.0;35.0;181.0;-62.0;3.0;-5.0;-17.0;43.0;-494.0;-38.0;44.0;-3.0;17.0;49.0;-855.0;-23.0;-9.0;-4.0;0.0;40.0;-479.0;22.0;-27.0;-2.0;22.0;26.0;-525.0;3.0;-70.0;-2.0;8.0;23.0;-492.0;8.0;-67.0;-2.0;5.0;13.0;-425.0;-23.0;-52.0;-2.0;3.0;10.0;-405.0;11.0;-43.0;-1.0;2.0;5.0;-240.0;4.0;-26.0;-1.0;8.0;-3.0;-230.0;-2.0;-16.0AQW;-8.0;-6.0;-200.0;-6714.0;-139.0;-61.0;7.0;-139.0;-63.0;-1442.0;284.0;-8.0;-15.0;-32.0;-86.0;2046.0;221.0;179.0;19.0;-45.0;111.0;8522.0;295.0;103.0;-6.0;129.0;-30.0;3253.0;-240.0;55.0;16.0;-28.0;43.0;480.0;-250.0;-143.0;-9.0;20.0;50.0;-1214.0;-171.0;3.0;3.0;-12.0;59.0;-1378.0;-14.0;22.0;-10.0;-31.0;37.0;-103.0;-45.0;55.0;-1.0;20.0;23.0;-352.0;18.0;84.0;-5.0;5.0;18.0;-547.0;-17.0;37.0;-2.0;5.0;17.0;-284.0;-1.0;-31.0;-3.0;3.0;9.0;-232.0;-10.0;-74.0;-2.0;6.0;6.0;-262.0;28.0;-74.0;-1.0;4.0;1.0;-213.0;-9.0;-47.0;0.0;6.0;-1.0;-128.0;6.0;-18.0AQW;-6.0;56.0;-196.0;-6272.0;-139.0;-410.0;86.0;-134.0;-110.0;-3302.0;274.0;-252.0;6.0;-74.0;-80.0;1613.0;19.0;123.0;18.0;-69.0;117.0;7172.0;217.0;483.0;-82.0;119.0;20.0;4864.0;-230.0;356.0;-11.0;2.0;11.0;338.0;-18.0;-63.0;-8.0;-24.0;37.0;311.0;-105.0;24.0;-1.0;-14.0;47.0;-55.0;-63.0;33.0;-3.0;-15.0;54.0;542.0;-34.0;101.0;-3.0;68.0;36.0;-784.0;51.0;-21.0;-4.0;36.0;41.0;-1851.0;11.0;-95.0;-3.0;12.0;29.0;-1835.0;-15.0;-128.0;-1.0;-29.0;11.0;-463.0;-26.0;-75.0;-1.0;-1.0;-1.0;94.0;9.0;-37.0;0.0;0.0;0.0;35.0;-16.0;-13.0;1.0;4.0;-3.0;-2.0;-5.0;-4.0AQW;-10.0;-146.0;-200.0;-6138.0;-465.0;-891.0;-57.0;-76.0;-18.0;-454.0;43.0;65.0;1.0;-70.0;-45.0;4935.0;120.0;123.0;20.0;155.0;117.0;6646.0;566.0;956.0;69.0;39.0;-72.0;2231.0;-41.0;55.0;3.0;-61.0;41.0;1132.0;-140.0;100.0;-2.0;-22.0;16.0;828.0;-69.0;93.0;-3.0;0.0;41.0;-948.0;6.0;17.0;-8.0;-14.0;53.0;-1194.0;-23.0;-19.0;-4.0;-8.0;43.0;-790.0;15.0;-26.0;-5.0;8.0;23.0;-359.0;27.0;-67.0;-2.0;10.0;17.0;-517.0;35.0;-68.0;-4.0;10.0;11.0;-312.0;-18.0;-69.0;-1.0;6.0;11.0;-202.0;41.0;-5.0;-6.0;7.0;2.0;-103.0;-38.0;-27.0;0.0;-4.0;6.0;-176.0;8.0;-37.0AQW;-24.0;-109.0;-70.0;-2015.0;-10.0;42.0;10.0;-72.0;-69.0;3180.0;191.0;160.0;-1.0;6.0;103.0;6464.0;273.0;754.0;30.0;84.0;6.0;3446.0;34.0;22.0;-8.0;-5.0;47.0;-557.0;-200.0;-77.0;1.0;-35.0;47.0;-202.0;-193.0;-46.0;-2.0;12.0;29.0;-840.0;-44.0;8.0;-6.0;-17.0;36.0;-349.0;-23.0;26.0;-1.0;5.0;22.0;-252.0;-9.0;-19.0;-2.0;2.0;22.0;-403.0;11.0;-20.0;0.0;15.0;13.0;-383.0;-17.0;-46.0;-1.0;4.0;12.0;-512.0;10.0;-24.0;0.0;4.0;6.0;-228.0;4.0;-30.0;-2.0;-3.0;2.0;-105.0;13.0;-13.0;0.0;5.0;2.0;-59.0;13.0;-14.0;-2.0;-2.0;1.0;-24.0;9.0;1.0AQW;138.0;-134.0;-126.0;-3062.0;291.0;-120.0;18.0;-12.0;-84.0;1757.0;326.0;162.0;4.0;-78.0;96.0;6723.0;505.0;653.0;-126.0;127.0;54.0;3911.0;-227.0;268.0;-5.0;-4.0;22.0;-262.0;-345.0;-91.0;-4.0;-52.0;39.0;448.0;-305.0;8.0;-2.0;-10.0;28.0;1071.0;-61.0;18.0;-9.0;-5.0;33.0;122.0;62.0;147.0;-3.0;28.0;46.0;-937.0;7.0;37.0;-7.0;10.0;43.0;-1873.0;8.0;-36.0;-6.0;-7.0;31.0;-1301.0;-20.0;-98.0;-2.0;-6.0;9.0;-501.0;3.0;-110.0;0.0;3.0;2.0;-80.0;10.0;-92.0;-2.0;7.0;2.0;-13.0;-10.0;-52.0;-1.0;3.0;1.0;1.0;-34.0;-21.0;-4.0;2.0;-2.0;39.0;-36.0;-4.0AQW;29.0;-135.0;-190.0;-4102.0;-9.0;-279.0;29.0;-63.0;-13.0;13.0;52.0;89.0;-1.0;-84.0;-26.0;5422.0;248.0;302.0;-16.0;133.0;116.0;5216.0;141.0;443.0;-17.0;46.0;-69.0;2143.0;34.0;99.0;7.0;-38.0;30.0;1041.0;-110.0;108.0;-5.0;-7.0;23.0;-214.0;-80.0;4.0;-4.0;-16.0;57.0;-1367.0;-87.0;-13.0;-9.0;-19.0;50.0;-862.0;-79.0;49.0;-2.0;7.0;42.0;-177.0;-21.0;-13.0;-4.0;26.0;25.0;-270.0;19.0;-31.0;-6.0;14.0;18.0;-627.0;-45.0;-84.0;-2.0;4.0;15.0;-659.0;-14.0;-121.0;-2.0;3.0;4.0;-317.0;-16.0;-119.0;0.0;6.0;0.0;-236.0;-9.0;-79.0;-1.0;2.0;1.0;-59.0;-12.0;-38.0AQW;3.0;-22.0;-198.0;-6354.0;-229.0;-944.0;-30.0;-99.0;-56.0;-1006.0;-34.0;-13.0;-6.0;-76.0;-47.0;3494.0;-63.0;253.0;0.0;17.0;112.0;7385.0;253.0;973.0;35.0;74.0;-23.0;2581.0;77.0;112.0;-3.0;-16.0;27.0;54.0;3.0;-47.0;1.0;-13.0;35.0;-194.0;-5.0;50.0;3.0;-3.0;39.0;-858.0;-17.0;-24.0;-5.0;-11.0;39.0;-637.0;-68.0;48.0;-3.0;-4.0;26.0;-499.0;10.0;-16.0;-3.0;9.0;19.0;-258.0;15.0;-33.0;-3.0;2.0;17.0;-188.0;-7.0;-54.0;0.0;13.0;16.0;-161.0;-7.0;-19.0;-3.0;1.0;10.0;-240.0;-27.0;-10.0;-1.0;9.0;5.0;-265.0;-6.0;-15.0;-1.0;2.0;2.0;-115.0;-29.0;-27.0AQW;12.0;-136.0;-120.0;-3871.0;-167.0;-131.0;8.0;-73.0;-30.0;660.0;128.0;214.0;9.0;-89.0;-14.0;6119.0;477.0;266.0;-12.0;118.0;32.0;5965.0;271.0;243.0;4.0;63.0;-17.0;838.0;-101.0;-141.0;-2.0;-9.0;69.0;-837.0;-284.0;-39.0;3.0;11.0;68.0;-1479.0;-70.0;14.0;-13.0;-7.0;40.0;-1028.0;-14.0;10.0;-6.0;3.0;22.0;-542.0;15.0;-36.0;-4.0;0.0;17.0;-350.0;-41.0;-44.0;-1.0;5.0;10.0;-181.0;-37.0;7.0;-1.0;6.0;3.0;-306.0;-44.0;-13.0;1.0;6.0;3.0;-273.0;-12.0;-60.0;-1.0;-3.0;0.0;-184.0;-1.0;-67.0;1.0;2.0;-3.0;-25.0;12.0;-36.0;0.0;2.0;-1.0;-18.0;21.0;-7.0AQW;132.0;-142.0;-104.0;-2726.0;446.0;-186.0;20.0;-93.0;-60.0;2564.0;110.0;204.0;1.0;-46.0;98.0;7155.0;355.0;657.0;-126.0;131.0;20.0;4236.0;-423.0;365.0;-16.0;20.0;-2.0;188.0;-110.0;84.0;-1.0;-28.0;43.0;19.0;-129.0;171.0;-7.0;-9.0;38.0;-662.0;-44.0;-44.0;-6.0;-6.0;50.0;-832.0;14.0;-22.0;-6.0;14.0;36.0;-619.0;-7.0;-83.0;1.0;10.0;32.0;-703.0;51.0;-62.0;-7.0;1.0;13.0;-506.0;-30.0;-84.0;-1.0;-1.0;8.0;-485.0;-22.0;-74.0;-1.0;-2.0;2.0;-127.0;-21.0;-44.0;1.0;4.0;-3.0;-93.0;-21.0;-36.0;1.0;-1.0;-1.0;-54.0;-4.0;-15.0;0.0;4.0;-1.0;-31.0;7.0;-4.0AQW;-77.0;-132.0;-49.0;-1948.0;-384.0;202.0;0.0;5.0;-113.0;2020.0;440.0;295.0;3.0;-35.0;127.0;7490.0;462.0;901.0;88.0;112.0;-21.0;3808.0;444.0;80.0;4.0;-94.0;48.0;1808.0;-452.0;102.0;-5.0;-34.0;15.0;2114.0;-213.0;342.0;-3.0;71.0;51.0;-935.0;7.0;1.0;-17.0;43.0;85.0;-3242.0;17.0;-5.0;-14.0;27.0;69.0;-2935.0;20.0;-136.0;-13.0;-41.0;29.0;-1051.0;-67.0;-134.0;3.0;-15.0;7.0;216.0;-24.0;-188.0;-5.0;5.0;-14.0;-95.0;-120.0;-209.0;1.0;2.0;-9.0;-86.0;-56.0;-186.0;1.0;8.0;-13.0;-36.0;-14.0;-121.0;-3.0;-2.0;-6.0;-93.0;40.0;-26.0;-3.0;-1.0;-4.0;107.0;54.0;31.0AQW;11.0;-146.0;-208.0;-6652.0;-323.0;-554.0;18.0;-170.0;7.0;-544.0;148.0;349.0;13.0;-90.0;11.0;5493.0;441.0;253.0;1.0;117.0;126.0;7077.0;572.0;785.0;-3.0;94.0;-108.0;3050.0;93.0;-44.0;6.0;-41.0;25.0;1455.0;-101.0;101.0;-5.0;-11.0;24.0;33.0;-135.0;-69.0;-3.0;10.0;77.0;-1606.0;-119.0;-58.0;-1.0;7.0;67.0;-1027.0;-110.0;77.0;-5.0;38.0;37.0;-734.0;87.0;80.0;-11.0;18.0;26.0;-412.0;81.0;-108.0;-10.0;18.0;22.0;-1120.0;26.0;-131.0;-4.0;-9.0;26.0;-720.0;-111.0;-129.0;0.0;-5.0;7.0;-432.0;-132.0;-48.0;-1.0;-4.0;-5.0;80.0;-136.0;-47.0;-1.0;6.0;-16.0;-17.0;-46.0;-29.0AQW;97.0;-139.0;-85.0;-3321.0;243.0;-380.0;17.0;-94.0;-88.0;3466.0;89.0;432.0;7.0;-37.0;79.0;8592.0;830.0;1080.0;-82.0;147.0;1.0;4311.0;-20.0;608.0;-10.0;16.0;28.0;-1407.0;-157.0;-110.0;0.0;-41.0;75.0;-1870.0;-301.0;-32.0;-10.0;-41.0;34.0;-295.0;-241.0;-69.0;-9.0;-20.0;32.0;172.0;25.0;56.0;-6.0;14.0;24.0;397.0;42.0;-36.0;-4.0;26.0;19.0;-197.0;18.0;-5.0;-1.0;24.0;24.0;-500.0;-12.0;-28.0;-7.0;10.0;14.0;-572.0;-9.0;-24.0;-5.0;2.0;14.0;-623.0;-8.0;-15.0;-3.0;2.0;4.0;-365.0;-20.0;-58.0;1.0;1.0;-1.0;-254.0;-5.0;-66.0;3.0;8.0;-3.0;-32.0;22.0;-65.0AQW;174.0;-137.0;-109.0;-3784.0;390.0;85.0;26.0;-25.0;-61.0;1531.0;182.0;128.0;10.0;-108.0;112.0;6604.0;503.0;476.0;-165.0;109.0;36.0;5313.0;-290.0;189.0;-13.0;16.0;-16.0;852.0;-112.0;-15.0;1.0;-29.0;25.0;443.0;-98.0;132.0;-4.0;23.0;29.0;-1050.0;-114.0;-144.0;-9.0;-27.0;46.0;-1765.0;-66.0;120.0;-5.0;-8.0;29.0;-527.0;-139.0;33.0;-1.0;-4.0;23.0;-185.0;62.0;58.0;-6.0;1.0;9.0;-331.0;-1.0;-55.0;-5.0;3.0;10.0;-478.0;-18.0;-97.0;-4.0;-1.0;7.0;-115.0;-51.0;-98.0;-2.0;12.0;4.0;79.0;-2.0;-99.0;-2.0;10.0;-1.0;-86.0;4.0;-93.0;4.0;4.0;0.0;-154.0;-10.0;-41.0AQW;8.0;-31.0;-182.0;-6604.0;-702.0;-664.0;19.0;-83.0;-12.0;-3136.0;-204.0;179.0;-1.0;-12.0;-81.0;948.0;394.0;261.0;6.0;57.0;111.0;6923.0;935.0;915.0;-5.0;80.0;-60.0;4580.0;265.0;38.0;15.0;-108.0;22.0;2523.0;-201.0;76.0;-5.0;-25.0;12.0;1145.0;-86.0;-81.0;-3.0;23.0;52.0;-1418.0;-21.0;-179.0;2.0;31.0;72.0;-2257.0;-111.0;-68.0;1.0;-3.0;54.0;-1338.0;-67.0;-38.0;-1.0;1.0;13.0;-401.0;5.0;35.0;-13.0;-10.0;3.0;-723.0;-8.0;37.0;1.0;-8.0;9.0;-157.0;-63.0;-6.0;-3.0;-8.0;3.0;-23.0;-34.0;1.0;-1.0;0.0;4.0;117.0;10.0;-32.0;-3.0;5.0;1.0;114.0;-7.0;-47.0AQW;30.0;-131.0;-196.0;-5262.0;-402.0;-478.0;10.0;-91.0;-33.0;-702.0;-16.0;194.0;19.0;-47.0;23.0;4956.0;514.0;356.0;-16.0;149.0;108.0;5829.0;588.0;785.0;6.0;71.0;-70.0;2041.0;6.0;66.0;9.0;-57.0;17.0;1276.0;-251.0;61.0;-5.0;-26.0;19.0;338.0;-94.0;-170.0;-5.0;-6.0;40.0;-1008.0;10.0;-110.0;-7.0;-7.0;44.0;-1213.0;-65.0;-37.0;-1.0;-12.0;41.0;-371.0;-43.0;44.0;-6.0;8.0;21.0;-171.0;5.0;68.0;-9.0;13.0;19.0;-346.0;31.0;10.0;-7.0;7.0;15.0;-555.0;5.0;-76.0;-4.0;-3.0;17.0;-411.0;-2.0;-115.0;-3.0;-1.0;7.0;-247.0;-46.0;-85.0;-1.0;6.0;1.0;-98.0;-53.0;-56.0AQW;17.0;-87.0;-186.0;-6259.0;-902.0;-965.0;57.0;-76.0;30.0;492.0;46.0;208.0;-4.0;-11.0;-47.0;3936.0;521.0;370.0;-8.0;105.0;113.0;6587.0;930.0;1064.0;-47.0;68.0;-108.0;970.0;-72.0;-42.0;6.0;-108.0;47.0;1326.0;-268.0;-61.0;-5.0;-22.0;9.0;1528.0;5.0;6.0;-3.0;-6.0;37.0;184.0;111.0;17.0;-4.0;14.0;58.0;-917.0;-25.0;-10.0;2.0;13.0;62.0;-1687.0;-22.0;-20.0;-1.0;11.0;43.0;-1462.0;-37.0;-107.0;-4.0;-11.0;18.0;-837.0;-27.0;-53.0;-4.0;-5.0;8.0;-207.0;4.0;-50.0;-3.0;4.0;1.0;-183.0;-23.0;-16.0;0.0;5.0;1.0;-92.0;-7.0;-14.0;-1.0;1.0;-1.0;22.0;-20.0;-19.0AQW;-5.0;-131.0;-193.0;-5152.0;-630.0;-697.0;33.0;-105.0;-7.0;289.0;22.0;263.0;-4.0;-50.0;-50.0;4527.0;354.0;392.0;16.0;117.0;114.0;6498.0;669.0;863.0;-23.0;89.0;-76.0;1977.0;32.0;-184.0;-3.0;-57.0;53.0;949.0;-200.0;-92.0;-8.0;8.0;31.0;-254.0;11.0;-19.0;-2.0;-7.0;55.0;-1166.0;0.0;13.0;-4.0;-9.0;52.0;-1014.0;-60.0;43.0;-2.0;11.0;37.0;-838.0;-42.0;-43.0;-6.0;8.0;26.0;-931.0;-17.0;-17.0;-2.0;7.0;18.0;-534.0;-2.0;-71.0;-3.0;-6.0;8.0;-264.0;-3.0;-77.0;-3.0;1.0;2.0;-93.0;-7.0;-89.0;0.0;3.0;0.0;-64.0;-36.0;-54.0;0.0;0.0;-2.0;-34.0;-14.0;-26.0AQW;96.0;-133.0;-141.0;-3859.0;17.0;-265.0;20.0;-59.0;-45.0;1578.0;76.0;199.0;13.0;-31.0;98.0;6147.0;433.0;539.0;-89.0;122.0;58.0;5291.0;4.0;432.0;-21.0;-10.0;-13.0;1285.0;-107.0;28.0;-3.0;-24.0;32.0;1025.0;-58.0;70.0;-3.0;-7.0;42.0;-259.0;26.0;-70.0;1.0;10.0;61.0;-1225.0;-16.0;-56.0;-5.0;9.0;61.0;-755.0;-132.0;-8.0;-3.0;27.0;39.0;-900.0;-39.0;-80.0;-5.0;13.0;27.0;-757.0;-48.0;-71.0;1.0;4.0;10.0;-798.0;18.0;-114.0;2.0;-2.0;10.0;-237.0;-13.0;-56.0;-4.0;-3.0;1.0;-45.0;3.0;-16.0;0.0;6.0;3.0;-93.0;-14.0;10.0;0.0;1.0;3.0;-26.0;-22.0;31.0AQW;37.0;-149.0;-210.0;-5115.0;-40.0;-363.0;25.0;-69.0;-68.0;1141.0;-4.0;-61.0;18.0;-45.0;66.0;6608.0;445.0;295.0;-29.0;125.0;109.0;6193.0;-15.0;469.0;-15.0;-10.0;-36.0;2052.0;23.0;184.0;0.0;-60.0;15.0;2198.0;76.0;186.0;-2.0;-15.0;36.0;1152.0;144.0;14.0;-5.0;24.0;79.0;-1659.0;119.0;-21.0;-7.0;24.0;83.0;-1942.0;-133.0;-107.0;-9.0;21.0;57.0;-1689.0;-117.0;-65.0;-5.0;9.0;34.0;-466.0;-41.0;-97.0;0.0;29.0;16.0;-115.0;-56.0;-126.0;2.0;25.0;11.0;-510.0;12.0;-133.0;2.0;14.0;-1.0;-537.0;-63.0;-84.0;1.0;-11.0;-4.0;-424.0;22.0;-2.0;1.0;0.0;0.0;-66.0;13.0;41.0AQW;33.0;-50.0;-235.0;-7409.0;-685.0;-325.0;47.0;-128.0;-137.0;-4081.0;-110.0;-315.0;11.0;-55.0;-141.0;2090.0;193.0;24.0;-7.0;66.0;72.0;7336.0;741.0;556.0;-26.0;104.0;-21.0;4669.0;238.0;589.0;15.0;-62.0;5.0;1026.0;149.0;103.0;-4.0;-91.0;25.0;2311.0;108.0;13.0;-6.0;-77.0;49.0;1657.0;167.0;-103.0;-12.0;-3.0;73.0;767.0;107.0;-204.0;-2.0;59.0;122.0;-1448.0;82.0;-152.0;2.0;85.0;103.0;-1803.0;-157.0;-142.0;-3.0;44.0;74.0;-2031.0;-88.0;-30.0;-3.0;29.0;22.0;-790.0;-59.0;-80.0;-4.0;9.0;10.0;-598.0;2.0;9.0;-1.0;14.0;7.0;-268.0;-20.0;16.0;-1.0;-2.0;4.0;-267.0;-39.0;84.0AQW;35.0;-147.0;-246.0;-7494.0;-528.0;-544.0;42.0;-129.0;-114.0;-2346.0;64.0;-317.0;8.0;-57.0;-140.0;3428.0;52.0;-57.0;-19.0;104.0;89.0;8328.0;461.0;671.0;-20.0;35.0;-39.0;4542.0;32.0;538.0;5.0;-130.0;58.0;2533.0;117.0;-61.0;-13.0;-30.0;71.0;845.0;182.0;-44.0;-12.0;15.0;107.0;-621.0;-25.0;-275.0;-16.0;75.0;107.0;-2173.0;3.0;-120.0;3.0;64.0;70.0;-1177.0;-121.0;-123.0;0.0;54.0;41.0;-1278.0;-23.0;52.0;6.0;30.0;20.0;-740.0;-30.0;33.0;1.0;8.0;14.0;-347.0;17.0;22.0;0.0;16.0;2.0;-243.0;6.0;-13.0;-2.0;7.0;1.0;-196.0;-32.0;16.0;-1.0;3.0;1.0;-201.0;-17.0;6.0AQW;17.0;-152.0;-243.0;-7629.0;-966.0;-181.0;16.0;-131.0;-67.0;-729.0;-28.0;256.0;-4.0;-86.0;-137.0;3468.0;119.0;-236.0;-10.0;98.0;88.0;8175.0;1063.0;312.0;-4.0;30.0;-73.0;2709.0;192.0;-85.0;6.0;-120.0;67.0;2568.0;-41.0;-77.0;-2.0;-47.0;62.0;2638.0;31.0;-200.0;-14.0;89.0;99.0;-555.0;-62.0;-274.0;-10.0;87.0;132.0;-2415.0;-71.0;-6.0;-6.0;90.0;88.0;-3001.0;-103.0;48.0;5.0;-3.0;38.0;-1121.0;-81.0;61.0;-1.0;4.0;8.0;-651.0;-11.0;31.0;4.0;5.0;4.0;-217.0;-28.0;15.0;-1.0;1.0;1.0;-122.0;-23.0;9.0;3.0;-2.0;-1.0;-16.0;-5.0;12.0;-1.0;-3.0;0.0;65.0;2.0;7.0AQW;14.0;-154.0;-157.0;-3493.0;-315.0;-220.0;-6.0;-89.0;-131.0;2575.0;-69.0;-25.0;27.0;18.0;63.0;6913.0;606.0;677.0;-9.0;55.0;24.0;5796.0;333.0;358.0;3.0;-61.0;16.0;2401.0;59.0;-11.0;-7.0;-71.0;72.0;2496.0;130.0;-101.0;-6.0;66.0;105.0;-865.0;89.0;-170.0;-17.0;79.0;131.0;-2996.0;-73.0;-66.0;-7.0;91.0;94.0;-3194.0;-170.0;-8.0;0.0;6.0;29.0;-1310.0;-100.0;61.0;6.0;-15.0;9.0;-131.0;-8.0;39.0;3.0;-7.0;0.0;38.0;20.0;37.0;-2.0;-5.0;2.0;97.0;-8.0;-27.0;0.0;2.0;0.0;-51.0;-27.0;-9.0;0.0;-2.0;-1.0;19.0;-4.0;-19.0;1.0;6.0;-2.0;-13.0;-3.0;-10.0AQW;7.0;-87.0;-242.0;-6852.0;-857.0;-763.0;-47.0;-75.0;-107.0;-1789.0;-502.0;-143.0;11.0;-53.0;-126.0;4028.0;23.0;4.0;0.0;78.0;81.0;7231.0;920.0;872.0;58.0;7.0;-47.0;3425.0;580.0;350.0;-5.0;-88.0;40.0;1397.0;-3.0;105.0;-4.0;-43.0;37.0;1641.0;16.0;-62.0;-12.0;-28.0;83.0;102.0;-6.0;-221.0;-3.0;33.0;97.0;-1190.0;48.0;-184.0;-3.0;21.0;98.0;-1363.0;-36.0;-62.0;3.0;53.0;54.0;-1071.0;-12.0;0.0;-4.0;6.0;42.0;-877.0;-62.0;19.0;1.0;18.0;15.0;-467.0;-26.0;7.0;-2.0;9.0;9.0;-306.0;-35.0;-3.0;2.0;13.0;4.0;-144.0;-23.0;11.0;0.0;-2.0;5.0;-185.0;-20.0;21.0AQW;19.0;-84.0;-87.0;-1582.0;29.0;-40.0;9.0;-40.0;-115.0;2958.0;-88.0;-230.0;4.0;129.0;84.0;6450.0;383.0;418.0;-12.0;36.0;-48.0;3283.0;30.0;137.0;-3.0;-67.0;44.0;1676.0;11.0;96.0;-3.0;-29.0;50.0;879.0;71.0;-16.0;-4.0;-14.0;75.0;-103.0;-30.0;-124.0;-4.0;16.0;79.0;-950.0;0.0;-84.0;0.0;24.0;74.0;-801.0;-55.0;-38.0;-2.0;42.0;47.0;-1101.0;11.0;25.0;-3.0;10.0;33.0;-1018.0;-67.0;-6.0;0.0;-1.0;16.0;-507.0;-18.0;-35.0;2.0;-4.0;9.0;-55.0;-10.0;-10.0;0.0;11.0;6.0;71.0;9.0;32.0;1.0;9.0;5.0;-149.0;-21.0;25.0;0.0;12.0;3.0;-7.0;-24.0;16.0AQW;2.0;-131.0;-238.0;-6703.0;-391.0;-167.0;13.0;-126.0;-74.0;350.0;58.0;85.0;20.0;-58.0;-94.0;3990.0;181.0;-248.0;-2.0;115.0;88.0;7280.0;337.0;164.0;-9.0;78.0;-61.0;724.0;10.0;-23.0;-4.0;-85.0;56.0;1906.0;-9.0;-22.0;0.0;-18.0;51.0;1095.0;123.0;-33.0;-2.0;-23.0;71.0;380.0;-25.0;-110.0;-2.0;28.0;86.0;-862.0;21.0;-39.0;1.0;31.0;73.0;-1072.0;-77.0;-31.0;-2.0;54.0;53.0;-1225.0;5.0;34.0;-3.0;27.0;37.0;-766.0;-18.0;50.0;-3.0;7.0;23.0;-674.0;-38.0;9.0;0.0;-1.0;15.0;-297.0;-29.0;-14.0;1.0;9.0;1.0;-332.0;-36.0;-11.0;1.0;1.0;1.0;1.0;-9.0;13.0AQW;-6.0;-141.0;-151.0;-3103.0;-247.0;19.0;1.0;-18.0;-174.0;2330.0;302.0;95.0;31.0;5.0;85.0;7737.0;918.0;633.0;22.0;92.0;9.0;5210.0;350.0;161.0;9.0;-84.0;71.0;1408.0;-213.0;-180.0;-13.0;-14.0;72.0;350.0;-61.0;-81.0;-7.0;-18.0;94.0;-276.0;-6.0;-153.0;-3.0;39.0;87.0;-812.0;104.0;34.0;-6.0;43.0;70.0;-1023.0;-49.0;-36.0;-9.0;67.0;46.0;-1641.0;-53.0;-31.0;-8.0;20.0;31.0;-1521.0;-139.0;-50.0;4.0;-7.0;14.0;-354.0;-49.0;-78.0;0.0;4.0;3.0;-147.0;-29.0;8.0;-3.0;-2.0;4.0;-17.0;-27.0;13.0;-3.0;1.0;-4.0;13.0;-14.0;7.0;1.0;-2.0;-2.0;7.0;-5.0;8.0AQW;29.0;-142.0;-214.0;-4714.0;-511.0;-49.0;16.0;-60.0;-154.0;2740.0;184.0;-13.0;18.0;15.0;75.0;6926.0;743.0;423.0;-17.0;104.0;72.0;5819.0;519.0;216.0;-6.0;-93.0;64.0;1009.0;-148.0;104.0;-6.0;-41.0;50.0;1859.0;123.0;-62.0;-3.0;-20.0;88.0;481.0;45.0;-254.0;-4.0;83.0;84.0;-1589.0;20.0;-157.0;-6.0;63.0;96.0;-2232.0;-118.0;-60.0;-4.0;60.0;56.0;-1889.0;-68.0;20.0;-3.0;-6.0;29.0;-963.0;-76.0;55.0;2.0;-5.0;4.0;-160.0;-17.0;-6.0;0.0;-2.0;2.0;26.0;-27.0;25.0;-1.0;-2.0;-1.0;-51.0;-21.0;23.0;0.0;-5.0;-1.0;32.0;-6.0;12.0;1.0;2.0;-4.0;-57.0;-10.0;-12.0AQW;28.0;-157.0;-96.0;-2332.0;59.0;1.0;8.0;-60.0;-129.0;2627.0;154.0;30.0;-4.0;94.0;107.0;7312.0;584.0;555.0;-13.0;87.0;-36.0;4114.0;-41.0;139.0;8.0;-76.0;49.0;2198.0;-222.0;-11.0;-5.0;-18.0;51.0;2213.0;-70.0;-68.0;-13.0;68.0;107.0;-833.0;65.0;-139.0;-14.0;93.0;112.0;-2827.0;40.0;-10.0;-2.0;50.0;80.0;-2997.0;-26.0;-22.0;6.0;-12.0;23.0;-1042.0;-91.0;-5.0;0.0;-20.0;7.0;-80.0;-7.0;8.0;-2.0;2.0;3.0;56.0;-9.0;20.0;-1.0;-1.0;-1.0;3.0;-18.0;13.0;-2.0;-3.0;-3.0;11.0;-8.0;8.0;1.0;-2.0;-2.0;14.0;6.0;-20.0;0.0;1.0;-1.0;49.0;3.0;-22.0AQW;-123.0;-105.0;-115.0;-1347.0;-130.0;6.0;9.0;-14.0;-152.0;2926.0;198.0;-4.0;2.0;29.0;91.0;8391.0;583.0;806.0;137.0;68.0;-38.0;2664.0;224.0;152.0;4.0;-92.0;59.0;1258.0;35.0;21.0;-7.0;-30.0;38.0;416.0;62.0;-30.0;-4.0;-29.0;78.0;-227.0;1.0;-136.0;-9.0;-4.0;72.0;-856.0;-2.0;-42.0;4.0;15.0;66.0;-210.0;-22.0;-63.0;-2.0;30.0;43.0;-471.0;-14.0;-19.0;-4.0;29.0;41.0;-640.0;-4.0;-11.0;-6.0;14.0;30.0;-613.0;-18.0;2.0;-7.0;25.0;17.0;-445.0;-21.0;-10.0;-2.0;12.0;17.0;-271.0;-22.0;3.0;-3.0;6.0;10.0;-116.0;-14.0;-15.0;1.0;4.0;6.0;-162.0;-14.0;-2.0AQW;65.0;-147.0;-223.0;-4798.0;-56.0;-599.0;13.0;-127.0;-65.0;950.0;-5.0;158.0;24.0;-55.0;-78.0;4872.0;363.0;434.0;-56.0;114.0;80.0;5377.0;29.0;704.0;-6.0;70.0;-54.0;441.0;-68.0;-66.0;-4.0;-43.0;49.0;619.0;-150.0;4.0;-6.0;-24.0;28.0;272.0;32.0;-73.0;-5.0;-41.0;39.0;468.0;87.0;-61.0;-2.0;-18.0;49.0;358.0;97.0;-23.0;1.0;11.0;63.0;333.0;36.0;-36.0;-7.0;24.0;67.0;-173.0;32.0;-30.0;-3.0;47.0;55.0;-747.0;-2.0;-46.0;-5.0;38.0;44.0;-1033.0;-31.0;4.0;-2.0;37.0;23.0;-991.0;-66.0;2.0;-5.0;-1.0;19.0;-524.0;-56.0;7.0;1.0;0.0;5.0;-188.0;-14.0;-18.0AQW;15.0;-137.0;-238.0;-6603.0;-550.0;-343.0;19.0;-87.0;-62.0;292.0;241.0;221.0;19.0;-23.0;-104.0;3788.0;463.0;5.0;1.0;117.0;99.0;7468.0;597.0;423.0;-3.0;55.0;-75.0;760.0;-209.0;-187.0;-2.0;-68.0;53.0;-113.0;-121.0;-15.0;-10.0;-19.0;17.0;-896.0;-37.0;-50.0;-6.0;-20.0;25.0;-457.0;72.0;-45.0;1.0;-24.0;22.0;430.0;59.0;-5.0;8.0;-14.0;30.0;844.0;22.0;-7.0;0.0;4.0;27.0;-4.0;-14.0;13.0;-4.0;-4.0;36.0;-556.0;7.0;1.0;-1.0;-4.0;29.0;-520.0;33.0;-41.0;2.0;-3.0;26.0;-54.0;21.0;-40.0;2.0;-5.0;27.0;193.0;-28.0;-21.0;-3.0;19.0;19.0;-76.0;-36.0;0.0AQW;10.0;-76.0;-80.0;-1903.0;-23.0;-43.0;8.0;0.0;-144.0;1560.0;203.0;-75.0;-2.0;60.0;73.0;6136.0;585.0;554.0;0.0;96.0;-54.0;2472.0;52.0;79.0;-4.0;-50.0;30.0;460.0;-100.0;127.0;2.0;-27.0;14.0;527.0;-50.0;-48.0;-6.0;-28.0;17.0;251.0;-8.0;-7.0;0.0;-29.0;29.0;-74.0;-14.0;-6.0;0.0;-9.0;30.0;-153.0;27.0;-27.0;0.0;-7.0;35.0;-467.0;-18.0;-25.0;-2.0;-16.0;29.0;-261.0;-1.0;-35.0;-2.0;-16.0;21.0;-303.0;-14.0;-45.0;-2.0;-10.0;17.0;-90.0;-16.0;-47.0;-1.0;9.0;15.0;-246.0;-27.0;-28.0;1.0;4.0;12.0;-348.0;-55.0;32.0;0.0;0.0;5.0;-231.0;-50.0;43.0AQW;3.0;-81.0;-39.0;-2277.0;-213.0;-123.0;8.0;94.0;-115.0;493.0;130.0;38.0;-6.0;-4.0;27.0;3917.0;445.0;581.0;8.0;141.0;-47.0;2734.0;373.0;254.0;6.0;-50.0;34.0;472.0;24.0;120.0;4.0;-26.0;11.0;252.0;-4.0;-41.0;-2.0;-38.0;25.0;246.0;-148.0;-57.0;-5.0;-30.0;18.0;208.0;-98.0;-26.0;-1.0;-30.0;25.0;414.0;-52.0;5.0;-4.0;-23.0;27.0;41.0;7.0;-43.0;-3.0;-25.0;40.0;-182.0;60.0;-26.0;0.0;-13.0;38.0;-300.0;51.0;-83.0;0.0;11.0;38.0;-244.0;24.0;-47.0;-2.0;5.0;35.0;-277.0;-33.0;-24.0;-3.0;5.0;30.0;-297.0;-30.0;10.0;-1.0;-1.0;19.0;-397.0;-37.0;13.0AQW;-3.0;-45.0;-61.0;-872.0;1.0;-36.0;8.0;15.0;-100.0;1519.0;146.0;3.0;11.0;68.0;52.0;4839.0;457.0;322.0;4.0;74.0;-41.0;1667.0;55.0;67.0;-3.0;-45.0;44.0;737.0;-76.0;-31.0;-4.0;-18.0;18.0;314.0;-61.0;-34.0;0.0;-22.0;32.0;-383.0;0.0;-10.0;-1.0;-14.0;22.0;-491.0;-17.0;-15.0;1.0;-15.0;23.0;-411.0;13.0;-14.0;2.0;-6.0;15.0;-173.0;-15.0;-14.0;-1.0;-12.0;16.0;-118.0;8.0;4.0;-1.0;-3.0;16.0;136.0;9.0;-19.0;-1.0;-5.0;14.0;-93.0;-11.0;-8.0;1.0;1.0;15.0;35.0;-6.0;-8.0;0.0;0.0;11.0;-182.0;-19.0;-12.0;0.0;-4.0;14.0;-30.0;-4.0;12.0AQW;-2.0;-89.0;-101.0;-2641.0;-155.0;-128.0;-8.0;-9.0;-103.0;1213.0;-2.0;-6.0;2.0;-14.0;-33.0;3949.0;148.0;-82.0;2.0;106.0;-12.0;2879.0;170.0;133.0;7.0;2.0;7.0;-548.0;-32.0;-18.0;-10.0;-4.0;12.0;52.0;-63.0;-34.0;-5.0;-4.0;4.0;-95.0;-19.0;5.0;-1.0;-4.0;2.0;56.0;15.0;-6.0;5.0;-13.0;5.0;299.0;13.0;4.0;4.0;-6.0;4.0;107.0;9.0;-26.0;-1.0;-8.0;6.0;-11.0;11.0;13.0;-1.0;-2.0;8.0;-161.0;32.0;4.0;0.0;-5.0;8.0;-127.0;1.0;1.0;2.0;-3.0;7.0;-164.0;-13.0;1.0;1.0;-2.0;4.0;-119.0;-14.0;13.0;-1.0;-3.0;2.0;-32.0;-16.0;12.0AQW;9.0;-125.0;-194.0;-5133.0;-243.0;-286.0;5.0;-19.0;-123.0;1223.0;35.0;-27.0;20.0;-37.0;-67.0;4088.0;287.0;-133.0;-7.0;124.0;62.0;5309.0;230.0;278.0;3.0;-13.0;2.0;-356.0;-33.0;27.0;-10.0;-27.0;27.0;1043.0;-49.0;-1.0;-2.0;-33.0;28.0;565.0;6.0;28.0;-5.0;-27.0;32.0;293.0;29.0;-34.0;2.0;-28.0;50.0;112.0;54.0;-12.0;0.0;-1.0;48.0;-77.0;29.0;-12.0;-1.0;14.0;53.0;-274.0;34.0;4.0;-5.0;15.0;47.0;-572.0;13.0;-13.0;-2.0;16.0;41.0;-421.0;0.0;-30.0;-2.0;8.0;33.0;-401.0;-35.0;1.0;-3.0;14.0;18.0;-384.0;-35.0;-7.0;-1.0;5.0;11.0;-375.0;-42.0;-5.0AQW;36.0;-119.0;-172.0;-4926.0;-613.0;-290.0;-12.0;-11.0;-131.0;986.0;-24.0;-30.0;11.0;-36.0;-61.0;4171.0;685.0;29.0;-28.0;124.0;44.0;5205.0;644.0;319.0;19.0;20.0;-4.0;-765.0;67.0;41.0;-5.0;-16.0;23.0;-187.0;-122.0;-27.0;-5.0;0.0;-1.0;-198.0;-3.0;-22.0;-2.0;-6.0;5.0;60.0;13.0;-7.0;2.0;-9.0;4.0;227.0;28.0;-3.0;1.0;-3.0;3.0;155.0;10.0;9.0;1.0;-10.0;9.0;134.0;0.0;3.0;-1.0;-9.0;6.0;-100.0;38.0;35.0;0.0;-11.0;8.0;-198.0;6.0;11.0;-1.0;-11.0;5.0;-163.0;-7.0;6.0;0.0;-7.0;6.0;13.0;-18.0;-20.0;1.0;-4.0;4.0;106.0;-20.0;-15.0AQW;23.0;-110.0;-120.0;-3697.0;-175.0;-134.0;4.0;3.0;-121.0;957.0;66.0;-113.0;4.0;7.0;-39.0;4025.0;351.0;47.0;-21.0;141.0;-3.0;3712.0;179.0;167.0;5.0;6.0;13.0;-447.0;-1.0;136.0;1.0;-4.0;9.0;199.0;2.0;-26.0;0.0;-4.0;4.0;-194.0;-17.0;-13.0;-5.0;-8.0;-1.0;68.0;-20.0;-6.0;0.0;-10.0;2.0;21.0;1.0;13.0;0.0;-8.0;1.0;240.0;16.0;6.0;0.0;-15.0;6.0;287.0;34.0;12.0;1.0;-10.0;6.0;250.0;67.0;3.0;0.0;-17.0;14.0;30.0;38.0;12.0;2.0;-12.0;14.0;-31.0;20.0;3.0;0.0;-15.0;14.0;-80.0;6.0;14.0;1.0;-12.0;15.0;10.0;0.0;-24.0AQW;16.0;-132.0;-71.0;-2321.0;256.0;131.0;-1.0;-57.0;-140.0;1450.0;164.0;-181.0;8.0;-16.0;80.0;6729.0;197.0;-127.0;-15.0;95.0;-51.0;2306.0;-252.0;-218.0;1.0;-19.0;37.0;-44.0;-119.0;35.0;1.0;-1.0;14.0;83.0;-5.0;14.0;3.0;1.0;11.0;-506.0;56.0;28.0;4.0;-17.0;17.0;-552.0;-31.0;21.0;1.0;-13.0;6.0;53.0;-52.0;-12.0;-1.0;-5.0;4.0;188.0;-27.0;-18.0;0.0;-7.0;11.0;465.0;6.0;-17.0;1.0;-12.0;14.0;-93.0;8.0;15.0;1.0;4.0;11.0;-255.0;13.0;11.0;2.0;-7.0;11.0;-304.0;-14.0;14.0;-1.0;3.0;5.0;-156.0;-4.0;16.0;-1.0;-6.0;5.0;126.0;-16.0;3.0AQW;7.0;-116.0;-131.0;-3444.0;-75.0;24.0;-11.0;-56.0;-145.0;1151.0;39.0;-17.0;-2.0;-11.0;-22.0;5190.0;361.0;-105.0;-5.0;100.0;-7.0;3679.0;99.0;-25.0;15.0;8.0;28.0;-167.0;24.0;-19.0;-5.0;-9.0;19.0;-19.0;-40.0;37.0;-2.0;-17.0;18.0;-265.0;-10.0;21.0;-4.0;-25.0;13.0;-88.0;-55.0;-4.0;4.0;-13.0;12.0;359.0;9.0;-13.0;5.0;-4.0;9.0;479.0;11.0;-53.0;0.0;-9.0;20.0;230.0;19.0;4.0;0.0;-1.0;23.0;-26.0;53.0;11.0;1.0;-8.0;31.0;-272.0;7.0;4.0;2.0;-1.0;26.0;-272.0;-3.0;12.0;2.0;-6.0;23.0;-191.0;-31.0;21.0;-2.0;-5.0;15.0;-98.0;-16.0;28.0AQW;9.0;-51.0;-68.0;-2424.0;-209.0;-217.0;-2.0;24.0;-114.0;614.0;75.0;100.0;4.0;-10.0;-16.0;4068.0;237.0;138.0;-6.0;83.0;-42.0;2755.0;318.0;316.0;2.0;-22.0;13.0;314.0;-77.0;-40.0;-7.0;-1.0;11.0;473.0;-29.0;-3.0;-1.0;-38.0;27.0;597.0;-53.0;-101.0;-2.0;-34.0;24.0;458.0;22.0;-54.0;7.0;-23.0;37.0;206.0;24.0;8.0;0.0;-4.0;37.0;-92.0;-53.0;54.0;0.0;1.0;46.0;-336.0;29.0;35.0;-12.0;-15.0;43.0;-259.0;56.0;-44.0;-5.0;5.0;31.0;-403.0;54.0;-50.0;-4.0;7.0;33.0;-145.0;15.0;20.0;0.0;23.0;23.0;-170.0;-9.0;73.0;-6.0;14.0;19.0;-335.0;7.0;104.0AQW;0.0;-11.0;-175.0;-5782.0;-180.0;-126.0;13.0;-33.0;-92.0;-1842.0;52.0;-138.0;13.0;-33.0;-118.0;1534.0;169.0;-13.0;7.0;39.0;50.0;5872.0;260.0;85.0;-8.0;69.0;-38.0;1589.0;45.0;146.0;-3.0;-16.0;30.0;-61.0;-108.0;12.0;-5.0;-7.0;3.0;140.0;-55.0;20.0;5.0;-16.0;9.0;332.0;-2.0;-11.0;2.0;-18.0;10.0;564.0;29.0;-42.0;5.0;-18.0;18.0;143.0;26.0;-15.0;1.0;-20.0;23.0;-127.0;-7.0;-12.0;0.0;-26.0;27.0;71.0;-12.0;-9.0;3.0;-7.0;25.0;113.0;15.0;-4.0;3.0;-12.0;30.0;293.0;-7.0;-13.0;2.0;-3.0;36.0;74.0;-7.0;16.0;0.0;-5.0;39.0;116.0;23.0;18.0AQW;7.0;-57.0;-120.0;-3450.0;-388.0;-190.0;-9.0;18.0;-113.0;1241.0;72.0;54.0;-5.0;3.0;-17.0;4924.0;451.0;170.0;-8.0;92.0;-12.0;4113.0;383.0;287.0;14.0;-37.0;9.0;413.0;11.0;38.0;-4.0;-62.0;20.0;1505.0;61.0;-76.0;3.0;-54.0;42.0;662.0;206.0;-168.0;0.0;-28.0;51.0;13.0;107.0;-104.0;7.0;-7.0;78.0;-567.0;18.0;27.0;0.0;23.0;60.0;-431.0;-91.0;143.0;-11.0;17.0;56.0;-318.0;-89.0;127.0;-15.0;25.0;45.0;-436.0;-86.0;-49.0;-9.0;5.0;34.0;-385.0;-56.0;-32.0;2.0;26.0;30.0;-417.0;7.0;-83.0;1.0;30.0;20.0;-455.0;-16.0;2.0;1.0;20.0;11.0;-333.0;-27.0;5.0AQW;12.0;-141.0;-153.0;-2646.0;10.0;-198.0;10.0;10.0;-99.0;2713.0;253.0;103.0;14.0;66.0;5.0;4484.0;236.0;440.0;3.0;138.0;21.0;3565.0;13.0;256.0;4.0;-11.0;0.0;-234.0;-200.0;-13.0;-7.0;-37.0;17.0;710.0;-161.0;62.0;-4.0;-20.0;4.0;311.0;5.0;15.0;-3.0;-36.0;18.0;328.0;61.0;43.0;1.0;-16.0;20.0;-68.0;68.0;-41.0;-6.0;-32.0;31.0;-392.0;23.0;-50.0;0.0;-3.0;32.0;-404.0;48.0;-62.0;-2.0;-20.0;30.0;-57.0;-21.0;-53.0;0.0;-9.0;32.0;257.0;24.0;39.0;-3.0;-5.0;24.0;260.0;-8.0;16.0;-3.0;2.0;35.0;33.0;30.0;69.0;-3.0;21.0;30.0;-143.0;4.0;22.0AQW;14.0;-54.0;-126.0;-3031.0;-126.0;46.0;5.0;20.0;-110.0;1352.0;392.0;171.0;-5.0;24.0;12.0;4883.0;620.0;376.0;4.0;110.0;-13.0;3748.0;299.0;171.0;7.0;-27.0;18.0;352.0;-102.0;117.0;0.0;-21.0;15.0;367.0;-126.0;-37.0;-5.0;-27.0;16.0;-157.0;-78.0;-35.0;-5.0;-32.0;16.0;-172.0;-5.0;-16.0;2.0;-30.0;24.0;-38.0;37.0;-40.0;-1.0;-23.0;25.0;-79.0;15.0;-11.0;0.0;-9.0;26.0;-87.0;25.0;-12.0;-3.0;-6.0;22.0;-214.0;-11.0;-12.0;0.0;-11.0;25.0;-127.0;-12.0;-14.0;0.0;2.0;18.0;-179.0;-13.0;-24.0;1.0;-3.0;16.0;-120.0;-13.0;-10.0;-2.0;2.0;12.0;-206.0;-8.0;-17.0AQW;4.0;-13.0;-31.0;-1086.0;-161.0;-6.0;3.0;61.0;-108.0;2006.0;184.0;109.0;-19.0;60.0;77.0;5156.0;470.0;756.0;4.0;56.0;-62.0;2042.0;256.0;176.0;4.0;-83.0;47.0;662.0;-42.0;56.0;-6.0;-29.0;14.0;129.0;-36.0;-23.0;-3.0;-40.0;40.0;24.0;10.0;-99.0;-2.0;-18.0;41.0;-10.0;27.0;-82.0;4.0;-15.0;59.0;310.0;23.0;-49.0;-5.0;5.0;45.0;-475.0;-53.0;-39.0;-5.0;-4.0;49.0;-915.0;-31.0;-16.0;-3.0;-3.0;29.0;-944.0;-55.0;-36.0;0.0;-1.0;21.0;-532.0;-38.0;-3.0;1.0;0.0;5.0;-212.0;-35.0;2.0;0.0;0.0;-1.0;-106.0;-23.0;8.0;0.0;-6.0;0.0;31.0;-24.0;-14.0AQW;9.0;-70.0;-136.0;-3266.0;-340.0;-453.0;1.0;79.0;-100.0;1000.0;119.0;98.0;-9.0;-17.0;3.0;4254.0;217.0;236.0;-5.0;120.0;29.0;4062.0;423.0;584.0;7.0;-51.0;12.0;362.0;-98.0;44.0;-4.0;-33.0;8.0;1233.0;9.0;24.0;-2.0;-33.0;34.0;42.0;-19.0;-42.0;-4.0;-38.0;36.0;-222.0;0.0;-86.0;-2.0;-27.0;52.0;-675.0;1.0;-50.0;0.0;-14.0;44.0;-484.0;-24.0;-65.0;0.0;-7.0;38.0;-432.0;17.0;-41.0;0.0;-2.0;25.0;-455.0;-18.0;-14.0;-1.0;-1.0;16.0;-375.0;-38.0;1.0;-3.0;1.0;5.0;-345.0;-40.0;11.0;-1.0;-4.0;3.0;-162.0;-35.0;-3.0;1.0;-2.0;3.0;3.0;1.0;-10.0AQW;-1.0;-9.0;-31.0;-68.0;-116.0;-131.0;2.0;39.0;-70.0;2712.0;274.0;75.0;-8.0;131.0;57.0;4391.0;476.0;813.0;9.0;64.0;-59.0;869.0;187.0;258.0;1.0;-62.0;35.0;751.0;-97.0;12.0;-5.0;-54.0;20.0;953.0;30.0;-63.0;-1.0;-48.0;36.0;858.0;58.0;-107.0;3.0;-12.0;51.0;63.0;79.0;-17.0;0.0;-9.0;71.0;-765.0;-69.0;-51.0;-11.0;-5.0;64.0;-1304.0;-74.0;4.0;-8.0;-16.0;45.0;-888.0;-92.0;-87.0;-2.0;3.0;19.0;-655.0;-46.0;-39.0;5.0;4.0;7.0;-319.0;-52.0;-9.0;1.0;-2.0;0.0;-115.0;-31.0;9.0;-1.0;-3.0;-1.0;16.0;-5.0;-18.0;0.0;-2.0;1.0;-1.0;3.0;-7.0AQW;0.0;-34.0;-113.0;-3091.0;-403.0;-365.0;-2.0;33.0;-104.0;1311.0;106.0;-2.0;-3.0;18.0;-22.0;3883.0;458.0;286.0;8.0;88.0;2.0;3511.0;455.0;388.0;8.0;-28.0;17.0;144.0;-93.0;-29.0;-6.0;-35.0;18.0;1156.0;-133.0;8.0;-4.0;-46.0;22.0;880.0;33.0;19.0;1.0;-43.0;36.0;563.0;65.0;36.0;6.0;-27.0;44.0;-139.0;29.0;-61.0;1.0;-8.0;57.0;-577.0;-31.0;-32.0;-3.0;3.0;53.0;-392.0;-44.0;-37.0;-5.0;-3.0;52.0;-450.0;-1.0;29.0;-6.0;2.0;33.0;-579.0;-28.0;-7.0;-2.0;-5.0;23.0;-805.0;-25.0;-11.0;0.0;0.0;12.0;-500.0;-49.0;-31.0;1.0;-2.0;4.0;-128.0;-30.0;-13.0AQW;7.0;-32.0;-107.0;-3328.0;-266.0;-1.0;4.0;62.0;-138.0;1390.0;271.0;167.0;-4.0;8.0;-12.0;4989.0;737.0;396.0;3.0;75.0;-7.0;4136.0;213.0;73.0;9.0;-67.0;48.0;321.0;-263.0;-39.0;-8.0;-36.0;16.0;1110.0;-95.0;-23.0;-5.0;-48.0;35.0;573.0;89.0;-22.0;-6.0;-28.0;45.0;-68.0;120.0;-33.0;1.0;-20.0;75.0;-682.0;17.0;-19.0;-3.0;10.0;52.0;-1031.0;-41.0;-82.0;-3.0;6.0;41.0;-978.0;-41.0;-37.0;0.0;-1.0;21.0;-668.0;-46.0;-29.0;0.0;-8.0;14.0;-292.0;-23.0;10.0;-2.0;2.0;2.0;-162.0;-57.0;-8.0;0.0;-2.0;1.0;40.0;-14.0;1.0;-1.0;1.0;-2.0;25.0;-19.0;5.0AQW;20.0;-94.0;-160.0;-3743.0;-330.0;-583.0;2.0;45.0;-80.0;1125.0;139.0;139.0;6.0;3.0;-34.0;3195.0;296.0;47.0;-11.0;137.0;58.0;4367.0;418.0;654.0;6.0;-11.0;-20.0;-328.0;-101.0;-97.0;-7.0;-42.0;28.0;1248.0;-122.0;-38.0;-5.0;-24.0;15.0;611.0;19.0;-11.0;0.0;-24.0;29.0;538.0;55.0;35.0;-1.0;-31.0;38.0;-378.0;43.0;57.0;-3.0;-18.0;45.0;-515.0;-21.0;38.0;-7.0;-11.0;43.0;-537.0;19.0;6.0;-5.0;6.0;37.0;-430.0;27.0;-29.0;-3.0;-15.0;37.0;-213.0;-38.0;-83.0;-4.0;-11.0;26.0;-382.0;-52.0;-55.0;-3.0;-2.0;12.0;-226.0;-56.0;-51.0;-3.0;12.0;5.0;-317.0;-15.0;6.0AQW;10.0;-38.0;-120.0;-3692.0;-248.0;-352.0;3.0;54.0;-110.0;1455.0;218.0;229.0;-2.0;33.0;-12.0;4608.0;640.0;387.0;3.0;67.0;17.0;4561.0;322.0;547.0;16.0;-38.0;14.0;411.0;-120.0;-59.0;-7.0;-63.0;26.0;1163.0;-72.0;108.0;-9.0;-32.0;36.0;318.0;43.0;-109.0;-12.0;-20.0;48.0;-941.0;54.0;-62.0;0.0;-18.0;68.0;-965.0;3.0;-114.0;-2.0;-7.0;44.0;-889.0;-56.0;-47.0;-3.0;-5.0;27.0;-411.0;-50.0;-25.0;-3.0;-9.0;18.0;-213.0;-39.0;-27.0;-1.0;8.0;7.0;-308.0;-40.0;-20.0;-1.0;-6.0;8.0;-60.0;-46.0;-35.0;1.0;11.0;-2.0;-197.0;1.0;-12.0;1.0;1.0;2.0;19.0;-11.0;-12.0AQW;-23.0;-34.0;-93.0;-1888.0;-209.0;-274.0;1.0;63.0;-115.0;1310.0;236.0;143.0;-2.0;-14.0;37.0;4808.0;232.0;467.0;33.0;88.0;-10.0;2699.0;238.0;383.0;8.0;-61.0;51.0;581.0;-195.0;25.0;-9.0;-29.0;7.0;797.0;-6.0;33.0;-1.0;-43.0;31.0;344.0;60.0;-21.0;-4.0;-20.0;33.0;-41.0;81.0;13.0;-2.0;-17.0;56.0;-102.0;-13.0;18.0;-11.0;-17.0;56.0;-421.0;-27.0;29.0;-11.0;-8.0;48.0;-718.0;-20.0;-9.0;-9.0;-9.0;40.0;-534.0;-46.0;-73.0;-4.0;21.0;20.0;-661.0;-25.0;-16.0;-3.0;5.0;8.0;-164.0;-52.0;-74.0;0.0;9.0;5.0;-285.0;6.0;-40.0;-3.0;-3.0;4.0;3.0;-18.0;-48.0AQW;21.0;-109.0;-199.0;-4703.0;-27.0;24.0;12.0;26.0;-135.0;1445.0;410.0;187.0;25.0;-36.0;-14.0;4808.0;537.0;159.0;-3.0;134.0;89.0;5283.0;41.0;146.0;-3.0;-27.0;23.0;-518.0;-275.0;38.0;-16.0;-20.0;10.0;1153.0;-96.0;73.0;-9.0;-44.0;17.0;397.0;73.0;84.0;-3.0;-28.0;28.0;79.0;82.0;-50.0;2.0;-40.0;58.0;-464.0;25.0;-57.0;-5.0;-6.0;38.0;-639.0;25.0;-97.0;-2.0;-16.0;45.0;-599.0;41.0;-61.0;-3.0;-2.0;24.0;-330.0;13.0;-76.0;3.0;5.0;22.0;-253.0;-13.0;-58.0;0.0;6.0;14.0;-338.0;-51.0;-12.0;1.0;2.0;8.0;-197.0;-33.0;5.0;1.0;3.0;2.0;-182.0;-17.0;43.0AQW;-1.0;-79.0;-36.0;-1259.0;-15.0;53.0;8.0;61.0;-124.0;1193.0;293.0;137.0;-6.0;-10.0;82.0;5270.0;436.0;607.0;9.0;138.0;-68.0;1607.0;45.0;-40.0;-5.0;-45.0;45.0;300.0;-196.0;-20.0;-3.0;3.0;-2.0;450.0;-34.0;13.0;1.0;-18.0;10.0;305.0;-1.0;38.0;1.0;-47.0;23.0;295.0;31.0;4.0;0.0;-38.0;18.0;458.0;40.0;-16.0;-5.0;-37.0;34.0;-10.0;0.0;26.0;-4.0;-14.0;31.0;-134.0;18.0;-10.0;-2.0;-20.0;44.0;-120.0;4.0;-51.0;-4.0;-14.0;40.0;-151.0;16.0;-78.0;-2.0;9.0;33.0;-503.0;4.0;-60.0;0.0;6.0;29.0;-743.0;-21.0;-8.0;2.0;6.0;16.0;-535.0;-22.0;12.0AQW;10.0;-13.0;-36.0;1119.0;124.0;42.0;3.0;36.0;-63.0;2757.0;354.0;89.0;-12.0;117.0;63.0;4434.0;312.0;471.0;-4.0;62.0;-58.0;-546.0;-74.0;14.0;-3.0;-32.0;29.0;409.0;-129.0;-1.0;-2.0;-4.0;1.0;42.0;-23.0;34.0;-1.0;-45.0;19.0;761.0;19.0;39.0;1.0;-42.0;18.0;865.0;100.0;48.0;-3.0;-33.0;27.0;550.0;52.0;25.0;-5.0;-24.0;34.0;-121.0;12.0;-32.0;-4.0;-14.0;50.0;-444.0;-13.0;-56.0;0.0;-15.0;50.0;-601.0;-19.0;-81.0;-1.0;0.0;35.0;-628.0;-11.0;-49.0;-2.0;-2.0;20.0;-620.0;-20.0;-61.0;-2.0;2.0;12.0;-306.0;-8.0;-34.0;0.0;4.0;10.0;-181.0;-24.0;4.0AQW;6.0;33.0;-60.0;1320.0;122.0;177.0;5.0;24.0;-50.0;3622.0;513.0;222.0;-2.0;107.0;61.0;4629.0;338.0;773.0;6.0;16.0;-40.0;-638.0;-119.0;-60.0;-8.0;-60.0;21.0;1142.0;-119.0;60.0;-10.0;-41.0;12.0;793.0;86.0;34.0;-6.0;-33.0;25.0;373.0;111.0;16.0;1.0;-24.0;51.0;-273.0;30.0;-19.0;0.0;-9.0;48.0;-646.0;-41.0;-92.0;-7.0;-25.0;47.0;-418.0;-51.0;-93.0;-4.0;-5.0;33.0;-641.0;27.0;-92.0;-2.0;-2.0;20.0;-466.0;-14.0;-51.0;1.0;0.0;15.0;-343.0;-22.0;5.0;0.0;-1.0;8.0;-227.0;-30.0;4.0;0.0;-2.0;5.0;-35.0;-38.0;6.0;0.0;4.0;0.0;-158.0;-21.0;-3.0AQW;-7.0;-11.0;-85.0;-3148.0;-521.0;-209.0;-7.0;65.0;-115.0;983.0;176.0;201.0;-15.0;-5.0;-14.0;3821.0;668.0;421.0;18.0;64.0;-9.0;3543.0;552.0;256.0;16.0;-28.0;26.0;-141.0;-150.0;-87.0;-1.0;-36.0;22.0;1151.0;-117.0;37.0;-10.0;-42.0;15.0;900.0;117.0;-23.0;-2.0;-38.0;36.0;39.0;97.0;-7.0;2.0;-22.0;52.0;-942.0;6.0;-109.0;-1.0;-7.0;43.0;-1251.0;-119.0;-13.0;-3.0;-8.0;20.0;-671.0;-107.0;-49.0;0.0;-10.0;7.0;-263.0;-48.0;4.0;1.0;-5.0;1.0;-50.0;-53.0;-16.0;1.0;-5.0;-1.0;-13.0;-21.0;-13.0;1.0;3.0;-4.0;11.0;8.0;-9.0;-1.0;1.0;1.0;-9.0;16.0;4.0