Lable;AccX1;AccY1;AccZ1;GyrX1;GyrY1;GyrZ1;AccX2;AccY2;AccZ2;GyrX2;GyrY2;GyrZ2;AccX3;AccY3;AccZ3;GyrX3;GyrY3;GyrZ3;AccX4;AccY4;AccZ4;GyrX4;GyrY4;GyrZ4;AccX5;AccY5;AccZ5;GyrX5;GyrY5;GyrZ5;AccX6;AccY6;AccZ6;GyrX6;GyrY6;GyrZ6;AccX7;AccY7;AccZ7;GyrX7;GyrY7;GyrZ7;AccX8;AccY8;AccZ8;GyrX8;GyrY8;GyrZ8;AccX9;AccY9;AccZ9;GyrX9;GyrY9;GyrZ9;AccX10;AccY10;AccZ10;GyrX10;GyrY10;GyrZ10;AccX11;AccY11;AccZ11;GyrX11;GyrY11;GyrZ11;AccX12;AccY12;AccZ12;GyrX12;GyrY12;GyrZ12;AccX13;AccY13;AccZ13;GyrX13;GyrY13;GyrZ13;AccX14;AccY14;AccZ14;GyrX14;GyrY14;GyrZ14;AccX15;AccY15;AccZ15;GyrX15;GyrY15;GyrZ15;AccX16;AccY16;AccZ16;GyrX16;GyrY16;GyrZ16DOWN;-19.0;-19.0;-88.0;311.0;1389.0;1091.0;-98.0;-109.0;-10.0;2220.0;2539.0;825.0;-54.0;-10.0;211.0;216.0;720.0;-162.0;-79.0;25.0;187.0;213.0;-1885.0;-1235.0;32.0;72.0;99.0;-1597.0;-3251.0;-1229.0;24.0;-40.0;-131.0;215.0;-1428.0;-361.0;68.0;-10.0;-151.0;-177.0;63.0;-78.0;65.0;29.0;-96.0;234.0;696.0;301.0;54.0;10.0;-7.0;136.0;861.0;310.0;36.0;5.0;35.0;102.0;609.0;239.0;17.0;-4.0;44.0;-53.0;312.0;112.0;9.0;-2.0;34.0;-168.0;85.0;40.0;2.0;-6.0;16.0;-98.0;11.0;-22.0;2.0;-2.0;4.0;-15.0;-3.0;-40.0;-1.0;2.0;2.0;17.0;9.0;-2.0;0.0;-1.0;2.0;44.0;3.0;14.0DOWN;-89.0;-133.0;-3.0;1124.0;2351.0;812.0;-96.0;20.0;181.0;744.0;618.0;-142.0;-58.0;-62.0;230.0;417.0;-813.0;-868.0;1.0;126.0;104.0;-1251.0;-2994.0;-1085.0;45.0;-65.0;-87.0;-384.0;-1465.0;-360.0;51.0;-1.0;-114.0;-101.0;-671.0;-187.0;41.0;-7.0;-110.0;132.0;17.0;-5.0;47.0;11.0;-46.0;105.0;428.0;99.0;42.0;7.0;-18.0;213.0;516.0;155.0;31.0;11.0;8.0;165.0;519.0;185.0;20.0;3.0;19.0;-11.0;354.0;135.0;14.0;3.0;23.0;-74.0;216.0;83.0;6.0;-7.0;19.0;-76.0;107.0;35.0;4.0;-5.0;14.0;-18.0;39.0;3.0;-1.0;-6.0;9.0;-49.0;2.0;6.0;-1.0;2.0;3.0;-15.0;-16.0;7.0DOWN;-37.0;-91.0;-1.0;1518.0;2746.0;1225.0;-130.0;8.0;177.0;1397.0;930.0;124.0;-94.0;-106.0;228.0;680.0;-337.0;-819.0;-41.0;86.0;92.0;-1500.0;-3460.0;-1504.0;95.0;-62.0;-90.0;-682.0;-1624.0;-549.0;64.0;56.0;-121.0;-61.0;-789.0;-227.0;37.0;-7.0;-107.0;210.0;153.0;39.0;43.0;28.0;-50.0;15.0;517.0;140.0;44.0;19.0;-16.0;168.0;598.0;193.0;44.0;13.0;12.0;78.0;545.0;229.0;26.0;6.0;29.0;-10.0;367.0;200.0;16.0;-12.0;30.0;-112.0;182.0;97.0;0.0;-4.0;19.0;-114.0;68.0;22.0;2.0;-11.0;13.0;-28.0;26.0;-24.0;-1.0;-1.0;6.0;-36.0;-8.0;7.0;1.0;-3.0;3.0;-20.0;-6.0;10.0DOWN;-1.0;43.0;-137.0;135.0;1428.0;1383.0;-166.0;-165.0;51.0;2004.0;2534.0;856.0;7.0;-42.0;239.0;469.0;848.0;-166.0;-78.0;-84.0;235.0;21.0;-1789.0;-1589.0;109.0;114.0;33.0;-1687.0;-3135.0;-1220.0;12.0;-21.0;-95.0;546.0;-1276.0;-247.0;24.0;45.0;-134.0;-88.0;-357.0;-52.0;36.0;36.0;-104.0;186.0;347.0;306.0;43.0;29.0;-61.0;-10.0;672.0;426.0;44.0;-3.0;-3.0;18.0;789.0;269.0;35.0;-2.0;34.0;5.0;520.0;101.0;23.0;-28.0;61.0;-19.0;164.0;-38.0;12.0;-9.0;42.0;-54.0;-69.0;-28.0;4.0;-7.0;10.0;-132.0;-92.0;-16.0;-2.0;8.0;-9.0;78.0;-12.0;-10.0;-1.0;1.0;-8.0;44.0;22.0;-6.0DOWN;-35.0;53.0;-130.0;-82.0;929.0;963.0;-89.0;-97.0;63.0;1855.0;2518.0;784.0;-129.0;-33.0;201.0;823.0;563.0;72.0;-72.0;-97.0;234.0;51.0;-1071.0;-1139.0;19.0;71.0;33.0;-1762.0;-3195.0;-1149.0;91.0;-43.0;-93.0;-54.0;-1468.0;-622.0;49.0;37.0;-123.0;72.0;-581.0;-129.0;35.0;5.0;-99.0;321.0;228.0;196.0;46.0;26.0;-53.0;28.0;513.0;244.0;40.0;19.0;-20.0;145.0;615.0;203.0;42.0;16.0;15.0;37.0;606.0;176.0;25.0;-3.0;38.0;-33.0;388.0;140.0;18.0;-8.0;39.0;-146.0;157.0;95.0;5.0;-14.0;24.0;-85.0;25.0;16.0;3.0;-2.0;11.0;-12.0;-13.0;1.0;-3.0;-4.0;4.0;23.0;-22.0;-4.0DOWN;-41.0;29.0;-100.0;-97.0;1615.0;1512.0;-162.0;-162.0;-21.0;2388.0;2423.0;929.0;-75.0;9.0;217.0;307.0;616.0;-468.0;-69.0;-24.0;212.0;319.0;-1929.0;-1514.0;91.0;126.0;122.0;-2064.0;-3136.0;-1223.0;21.0;-82.0;-102.0;298.0;-1533.0;-65.0;42.0;-11.0;-137.0;-256.0;-421.0;-238.0;46.0;20.0;-107.0;25.0;287.0;67.0;62.0;11.0;-47.0;103.0;704.0;135.0;62.0;13.0;2.0;316.0;846.0;187.0;41.0;5.0;40.0;177.0;643.0;257.0;20.0;-9.0;44.0;-43.0;279.0;182.0;6.0;-12.0;31.0;-131.0;10.0;117.0;0.0;-11.0;12.0;-113.0;-28.0;23.0;-1.0;2.0;1.0;33.0;-1.0;-4.0;1.0;0.0;4.0;0.0;31.0;18.0DOWN;-73.0;-55.0;-29.0;695.0;2464.0;1679.0;-150.0;11.0;149.0;2308.0;897.0;865.0;-88.0;-160.0;222.0;267.0;-197.0;-916.0;-14.0;74.0;141.0;-779.0;-3418.0;-2098.0;90.0;-82.0;-80.0;-1687.0;-1745.0;-1377.0;57.0;105.0;-148.0;141.0;-911.0;-258.0;53.0;-24.0;-157.0;258.0;416.0;79.0;70.0;45.0;-57.0;131.0;865.0;339.0;59.0;-2.0;16.0;386.0;975.0;380.0;36.0;-2.0;51.0;171.0;673.0;340.0;13.0;-27.0;58.0;13.0;181.0;98.0;11.0;-8.0;30.0;-198.0;-109.0;34.0;5.0;-4.0;7.0;-144.0;-65.0;-8.0;8.0;6.0;-1.0;154.0;37.0;0.0;-2.0;6.0;3.0;-36.0;23.0;24.0;0.0;2.0;3.0;-53.0;3.0;41.0DOWN;-67.0;-35.0;-64.0;491.0;2166.0;1405.0;-161.0;-4.0;118.0;1952.0;1156.0;611.0;-70.0;-121.0;223.0;306.0;162.0;-667.0;-17.0;60.0;175.0;-613.0;-2701.0;-1666.0;94.0;-31.0;-30.0;-1577.0;-1938.0;-996.0;38.0;49.0;-124.0;-158.0;-1331.0;-226.0;33.0;-39.0;-144.0;182.0;-83.0;-81.0;58.0;21.0;-74.0;83.0;572.0;144.0;63.0;9.0;-15.0;331.0;762.0;233.0;47.0;7.0;25.0;244.0;681.0;323.0;30.0;-6.0;39.0;80.0;396.0;200.0;10.0;-7.0;34.0;-43.0;158.0;140.0;7.0;-11.0;17.0;-85.0;27.0;17.0;1.0;-1.0;7.0;-12.0;-26.0;-16.0;2.0;1.0;3.0;-35.0;-26.0;-22.0;0.0;9.0;-3.0;-34.0;-22.0;7.0DOWN;-31.0;-23.0;-56.0;264.0;1261.0;1471.0;-146.0;-139.0;34.0;2327.0;2316.0;548.0;-61.0;-42.0;215.0;755.0;890.0;-465.0;-65.0;25.0;169.0;-45.0;-1466.0;-1619.0;76.0;114.0;78.0;-1928.0;-3007.0;-932.0;18.0;-16.0;-104.0;-375.0;-1598.0;-173.0;31.0;-11.0;-136.0;1.0;-536.0;-214.0;47.0;20.0;-107.0;49.0;283.0;59.0;63.0;13.0;-46.0;213.0;662.0;196.0;56.0;16.0;3.0;123.0;735.0;307.0;32.0;-10.0;31.0;246.0;576.0;288.0;13.0;-15.0;45.0;-26.0;280.0;169.0;3.0;-11.0;25.0;-84.0;-1.0;5.0;7.0;-9.0;10.0;-207.0;-30.0;-53.0;6.0;2.0;5.0;40.0;38.0;-38.0;1.0;-1.0;11.0;51.0;51.0;37.0DOWN;-26.0;-1.0;-87.0;-503.0;868.0;1319.0;-106.0;-114.0;19.0;1808.0;2620.0;805.0;-107.0;11.0;183.0;1535.0;957.0;110.0;-92.0;-31.0;200.0;603.0;-838.0;-1309.0;21.0;83.0;94.0;-1746.0;-3372.0;-1140.0;68.0;-76.0;-85.0;-861.0;-1703.0;-731.0;45.0;17.0;-130.0;-63.0;-810.0;-421.0;59.0;17.0;-126.0;180.0;236.0;15.0;71.0;31.0;-51.0;145.0;713.0;304.0;61.0;12.0;-8.0;187.0;876.0;408.0;30.0;5.0;27.0;81.0;669.0;338.0;15.0;-17.0;44.0;-41.0;319.0;121.0;10.0;-7.0;37.0;-133.0;34.0;36.0;9.0;-13.0;25.0;-95.0;-2.0;8.0;-1.0;-2.0;6.0;-28.0;-18.0;13.0;-3.0;-1.0;-1.0;20.0;-13.0;-6.0DOWN;-24.0;5.0;-91.0;-222.0;758.0;1135.0;-78.0;-63.0;6.0;1705.0;2849.0;1332.0;-148.0;60.0;210.0;1752.0;546.0;405.0;-114.0;-91.0;198.0;427.0;-891.0;-1073.0;-3.0;41.0;76.0;-1677.0;-3595.0;-1775.0;98.0;-113.0;-105.0;-959.0;-1267.0;-918.0;78.0;77.0;-141.0;-244.0;-564.0;-440.0;60.0;12.0;-103.0;379.0;366.0;164.0;65.0;25.0;-41.0;110.0;699.0;327.0;52.0;-4.0;17.0;412.0;757.0;400.0;24.0;-5.0;33.0;322.0;493.0;265.0;10.0;-6.0;39.0;75.0;233.0;81.0;5.0;5.0;22.0;-181.0;5.0;-23.0;8.0;5.0;16.0;-306.0;30.0;11.0;7.0;-1.0;6.0;-141.0;24.0;13.0;4.0;6.0;2.0;-93.0;27.0;52.0DOWN;-10.0;25.0;-80.0;-150.0;654.0;1069.0;-110.0;-38.0;-21.0;1180.0;2685.0;1559.0;-130.0;-11.0;142.0;1928.0;719.0;417.0;-116.0;-107.0;186.0;262.0;-366.0;-994.0;20.0;7.0;123.0;-1089.0;-3257.0;-1971.0;93.0;-32.0;-34.0;-1133.0;-1393.0;-985.0;50.0;71.0;-120.0;-80.0;-1033.0;-439.0;49.0;24.0;-115.0;185.0;54.0;107.0;54.0;6.0;-57.0;237.0;494.0;266.0;57.0;18.0;-25.0;111.0;723.0;342.0;40.0;-7.0;17.0;245.0;659.0;295.0;24.0;-2.0;35.0;-110.0;421.0;175.0;16.0;-18.0;41.0;-23.0;134.0;71.0;8.0;-10.0;26.0;-129.0;51.0;15.0;2.0;-6.0;14.0;42.0;8.0;-18.0;-4.0;4.0;3.0;-65.0;-11.0;-11.0DOWN;-21.0;80.0;-136.0;-249.0;461.0;717.0;-79.0;-49.0;-43.0;1369.0;2556.0;1669.0;-140.0;8.0;174.0;1343.0;1093.0;424.0;-97.0;-140.0;244.0;496.0;-351.0;-747.0;-11.0;58.0;150.0;-1409.0;-3328.0;-2025.0;94.0;-42.0;-91.0;-878.0;-1861.0;-742.0;56.0;54.0;-135.0;-202.0;-899.0;-278.0;50.0;-16.0;-143.0;212.0;240.0;132.0;59.0;21.0;-60.0;126.0;729.0;221.0;59.0;5.0;2.0;226.0;875.0;281.0;38.0;8.0;38.0;195.0;707.0;312.0;18.0;-10.0;45.0;-41.0;287.0;186.0;2.0;-9.0;34.0;-65.0;-6.0;84.0;3.0;-17.0;17.0;-117.0;-108.0;-37.0;2.0;-4.0;5.0;37.0;0.0;-46.0;3.0;5.0;-1.0;-38.0;-10.0;-48.0DOWN;-59.0;-2.0;-101.0;170.0;1774.0;1401.0;-159.0;-101.0;62.0;2067.0;1981.0;442.0;-60.0;-86.0;216.0;129.0;581.0;-647.0;-34.0;14.0;204.0;1.0;-2305.0;-1634.0;87.0;54.0;6.0;-1593.0;-2678.0;-968.0;17.0;14.0;-131.0;204.0;-1560.0;-231.0;40.0;-18.0;-153.0;-96.0;-47.0;-153.0;68.0;30.0;-76.0;78.0;625.0;180.0;66.0;12.0;-12.0;218.0;834.0;307.0;57.0;0.0;31.0;236.0;755.0;352.0;25.0;-11.0;43.0;132.0;410.0;268.0;12.0;-12.0;39.0;-113.0;140.0;135.0;3.0;-13.0;18.0;-81.0;-6.0;15.0;2.0;0.0;8.0;-32.0;-3.0;-11.0;1.0;-1.0;3.0;-11.0;-2.0;-15.0;-2.0;4.0;2.0;-29.0;-33.0;-6.0DOWN;-39.0;51.0;-116.0;-254.0;668.0;944.0;-86.0;-84.0;4.0;1179.0;2172.0;1033.0;-130.0;13.0;184.0;1225.0;833.0;287.0;-77.0;-58.0;221.0;453.0;-828.0;-965.0;-5.0;66.0;94.0;-1394.0;-2994.0;-1438.0;74.0;-79.0;-97.0;-854.0;-1851.0;-961.0;54.0;9.0;-152.0;-355.0;-631.0;-401.0;70.0;23.0;-132.0;368.0;480.0;175.0;67.0;22.0;-41.0;249.0;956.0;419.0;48.0;-4.0;27.0;387.0;814.0;411.0;19.0;-13.0;48.0;-18.0;403.0;213.0;16.0;-14.0;35.0;-12.0;83.0;32.0;9.0;-9.0;19.0;-129.0;48.0;4.0;9.0;-1.0;15.0;8.0;51.0;15.0;2.0;-4.0;8.0;-34.0;29.0;-1.0;-1.0;7.0;2.0;-46.0;-30.0;-13.0DOWN;-26.0;0.0;-65.0;324.0;1899.0;1673.0;-140.0;-152.0;21.0;2580.0;1608.0;1111.0;-66.0;-57.0;223.0;180.0;463.0;-618.0;-67.0;24.0;177.0;-265.0;-2368.0;-1870.0;93.0;127.0;61.0;-2128.0;-2402.0;-1450.0;18.0;-5.0;-122.0;168.0;-1326.0;-127.0;40.0;-26.0;-137.0;30.0;-145.0;-117.0;58.0;4.0;-64.0;126.0;515.0;96.0;55.0;0.0;-9.0;491.0;686.0;276.0;42.0;6.0;22.0;122.0;571.0;314.0;11.0;-4.0;28.0;11.0;286.0;223.0;17.0;-5.0;18.0;-302.0;145.0;59.0;14.0;-6.0;16.0;76.0;155.0;-5.0;6.0;0.0;16.0;103.0;94.0;30.0;-1.0;5.0;13.0;43.0;11.0;43.0;1.0;-1.0;5.0;-60.0;-17.0;60.0DOWN;-8.0;-23.0;-84.0;287.0;1167.0;1410.0;-132.0;-20.0;-12.0;1600.0;2740.0;1015.0;-144.0;48.0;152.0;1407.0;876.0;250.0;-114.0;71.0;191.0;-325.0;-943.0;-1371.0;41.0;33.0;103.0;-1485.0;-3295.0;-1180.0;90.0;-78.0;-37.0;-1283.0;-1509.0;-681.0;55.0;-50.0;-115.0;76.0;-956.0;-266.0;46.0;-23.0;-91.0;46.0;25.0;42.0;50.0;-10.0;-56.0;345.0;375.0;155.0;50.0;9.0;-24.0;250.0;618.0;244.0;42.0;0.0;10.0;360.0;621.0;220.0;22.0;5.0;27.0;-16.0;417.0;180.0;20.0;-9.0;32.0;-88.0;231.0;53.0;8.0;-1.0;20.0;-145.0;74.0;-11.0;9.0;-1.0;13.0;-9.0;32.0;-26.0;4.0;1.0;3.0;-17.0;11.0;5.0DOWN;-42.0;9.0;-97.0;-3.0;1442.0;1369.0;-162.0;-162.0;24.0;2255.0;2180.0;523.0;-45.0;-32.0;209.0;245.0;582.0;-703.0;-55.0;2.0;212.0;104.0;-1942.0;-1525.0;101.0;102.0;77.0;-1903.0;-2978.0;-1016.0;-6.0;-24.0;-116.0;489.0;-1517.0;-131.0;38.0;-25.0;-138.0;24.0;-195.0;-282.0;55.0;46.0;-97.0;139.0;446.0;171.0;61.0;11.0;-22.0;254.0;690.0;303.0;51.0;10.0;13.0;90.0;649.0;371.0;30.0;-1.0;27.0;32.0;415.0;267.0;16.0;-7.0;25.0;-164.0;228.0;140.0;10.0;-7.0;17.0;-59.0;83.0;20.0;1.0;-6.0;14.0;-80.0;70.0;-16.0;4.0;3.0;14.0;-37.0;43.0;14.0;-1.0;0.0;8.0;-44.0;-7.0;25.0DOWN;-14.0;34.0;-115.0;230.0;951.0;784.0;-85.0;-34.0;-26.0;396.0;2133.0;1202.0;-151.0;-126.0;161.0;1240.0;1731.0;559.0;-70.0;-69.0;220.0;-432.0;-472.0;-846.0;9.0;25.0;154.0;-278.0;-2386.0;-1355.0;102.0;49.0;-31.0;-933.0;-2204.0;-974.0;27.0;19.0;-107.0;380.0;-972.0;-213.0;32.0;7.0;-132.0;84.0;-40.0;17.0;39.0;24.0;-66.0;133.0;385.0;159.0;46.0;18.0;-31.0;75.0;557.0;224.0;47.0;11.0;6.0;159.0;559.0;214.0;32.0;1.0;26.0;99.0;418.0;240.0;13.0;0.0;27.0;-86.0;227.0;212.0;2.0;-17.0;26.0;-36.0;99.0;79.0;-3.0;-8.0;19.0;-121.0;4.0;-28.0;-3.0;-4.0;10.0;-18.0;-45.0;-93.0DOWN;3.0;57.0;-110.0;-182.0;575.0;1162.0;-99.0;-69.0;-31.0;1012.0;2482.0;1796.0;-149.0;-65.0;129.0;2504.0;1503.0;413.0;-102.0;-78.0;216.0;-161.0;-165.0;-1527.0;11.0;75.0;143.0;-554.0;-2846.0;-2063.0;104.0;11.0;-12.0;-1804.0;-1953.0;-919.0;24.0;12.0;-118.0;425.0;-1035.0;59.0;41.0;-29.0;-112.0;55.0;-98.0;95.0;50.0;6.0;-47.0;28.0;267.0;182.0;50.0;2.0;-11.0;0.0;371.0;221.0;45.0;-4.0;11.0;78.0;483.0;113.0;27.0;10.0;10.0;79.0;411.0;113.0;21.0;0.0;13.0;76.0;299.0;73.0;13.0;7.0;17.0;-26.0;212.0;62.0;10.0;2.0;13.0;-64.0;114.0;59.0;3.0;5.0;11.0;-75.0;54.0;40.0DOWN;-41.0;-6.0;-56.0;-67.0;1731.0;1936.0;-165.0;-183.0;31.0;2453.0;2430.0;759.0;-104.0;6.0;224.0;399.0;666.0;-639.0;-78.0;-8.0;183.0;328.0;-1969.0;-2020.0;92.0;137.0;70.0;-2060.0;-3063.0;-1156.0;57.0;-94.0;-109.0;251.0;-1321.0;-98.0;54.0;10.0;-129.0;-115.0;-402.0;-120.0;57.0;6.0;-70.0;120.0;290.0;141.0;52.0;18.0;-27.0;-11.0;492.0;264.0;46.0;1.0;4.0;78.0;509.0;252.0;30.0;-2.0;20.0;104.0;411.0;199.0;18.0;-14.0;23.0;35.0;302.0;88.0;15.0;-1.0;16.0;-21.0;165.0;11.0;11.0;5.0;10.0;-222.0;95.0;9.0;11.0;-1.0;7.0;-61.0;15.0;9.0;7.0;-11.0;5.0;16.0;32.0;24.0DOWN;-29.0;-60.0;-27.0;10.0;1408.0;1428.0;-180.0;-100.0;-11.0;1628.0;2303.0;1005.0;-105.0;10.0;205.0;91.0;644.0;-641.0;-78.0;13.0;145.0;137.0;-1465.0;-1529.0;108.0;83.0;114.0;-1535.0;-2793.0;-1349.0;50.0;-75.0;-95.0;151.0;-1277.0;-93.0;31.0;37.0;-117.0;-109.0;-639.0;-246.0;30.0;1.0;-86.0;105.0;-51.0;27.0;51.0;15.0;-43.0;-85.0;343.0;128.0;50.0;2.0;-15.0;208.0;553.0;204.0;40.0;10.0;8.0;128.0;617.0;232.0;21.0;-1.0;26.0;73.0;429.0;165.0;11.0;-2.0;27.0;-109.0;204.0;109.0;6.0;-7.0;21.0;-49.0;31.0;32.0;5.0;-8.0;12.0;-3.0;8.0;17.0;0.0;-1.0;5.0;26.0;10.0;20.0DOWN;-76.0;163.0;0.0;-29.0;-435.0;1238.0;-170.0;-37.0;-43.0;-694.0;-443.0;1940.0;-145.0;-166.0;-103.0;-750.0;-260.0;1006.0;-6.0;-252.0;-49.0;-145.0;719.0;-1005.0;88.0;-86.0;0.0;961.0;666.0;-2717.0;78.0;69.0;51.0;758.0;853.0;-2331.0;-8.0;115.0;28.0;367.0;93.0;-1160.0;32.0;145.0;24.0;5.0;-57.0;231.0;65.0;22.0;20.0;-309.0;-318.0;777.0;64.0;-2.0;13.0;-99.0;-319.0;786.0;36.0;-35.0;2.0;-220.0;-139.0;501.0;20.0;-18.0;-5.0;87.0;-85.0;215.0;14.0;-18.0;-3.0;-123.0;-17.0;165.0;15.0;-23.0;0.0;65.0;-34.0;105.0;7.0;-11.0;2.0;0.0;-10.0;30.0;4.0;-7.0;2.0;-21.0;-34.0;14.0DOWN;-97.0;112.0;11.0;-279.0;-716.0;1446.0;-163.0;-98.0;-30.0;-428.0;-576.0;2055.0;-58.0;-192.0;-85.0;-404.0;180.0;98.0;8.0;-209.0;-40.0;176.0;1024.0;-1651.0;94.0;-26.0;1.0;464.0;1027.0;-2927.0;12.0;86.0;36.0;34.0;589.0;-1522.0;5.0;119.0;29.0;290.0;91.0;-674.0;32.0;117.0;16.0;0.0;-176.0;242.0;66.0;28.0;17.0;-210.0;-334.0;634.0;62.0;-10.0;1.0;-153.0;-351.0;604.0;37.0;-29.0;-5.0;-114.0;-121.0;362.0;27.0;-12.0;-3.0;32.0;-32.0;265.0;18.0;-16.0;0.0;41.0;-9.0;204.0;17.0;-8.0;4.0;3.0;-18.0;174.0;5.0;-14.0;0.0;30.0;-106.0;64.0;7.0;-5.0;3.0;-74.0;-14.0;37.0DOWN;-67.0;143.0;-1.0;-104.0;-306.0;1728.0;-175.0;-116.0;-46.0;-998.0;-866.0;2478.0;-56.0;-197.0;-81.0;-643.0;38.0;330.0;-9.0;-244.0;-17.0;50.0;512.0;-2053.0;108.0;36.0;31.0;1272.0;1057.0;-3339.0;20.0;100.0;32.0;70.0;313.0;-1485.0;-7.0;109.0;11.0;-112.0;139.0;-518.0;37.0;66.0;10.0;-386.0;108.0;211.0;61.0;14.0;11.0;-56.0;-96.0;446.0;58.0;-3.0;7.0;184.0;-223.0;506.0;35.0;-1.0;-1.0;214.0;-198.0;433.0;22.0;-2.0;1.0;98.0;-117.0;341.0;12.0;-5.0;1.0;-48.0;-57.0;266.0;12.0;-5.0;0.0;-204.0;-44.0;184.0;13.0;-18.0;3.0;-111.0;-55.0;105.0;10.0;-15.0;-3.0;0.0;-77.0;38.0DOWN;-90.0;122.0;6.0;659.0;-303.0;1014.0;-148.0;57.0;-38.0;-1156.0;-525.0;2427.0;-141.0;-168.0;-63.0;-260.0;-318.0;1151.0;4.0;-215.0;-22.0;-881.0;483.0;-625.0;63.0;-169.0;22.0;1007.0;675.0;-2933.0;89.0;57.0;23.0;133.0;577.0;-2113.0;-8.0;91.0;-5.0;127.0;93.0;-1283.0;17.0;109.0;0.0;168.0;179.0;-299.0;38.0;41.0;13.0;-81.0;-21.0;198.0;58.0;27.0;16.0;107.0;-161.0;452.0;47.0;-2.0;11.0;55.0;-237.0;553.0;37.0;14.0;8.0;2.0;-82.0;482.0;26.0;-6.0;7.0;-9.0;-70.0;406.0;21.0;-10.0;8.0;-114.0;-64.0;235.0;15.0;-19.0;3.0;-172.0;-77.0;157.0;12.0;-21.0;1.0;-51.0;-51.0;69.0DOWN;-100.0;134.0;-6.0;932.0;-562.0;1057.0;-160.0;83.0;-50.0;-1550.0;-490.0;2495.0;-158.0;-132.0;-87.0;325.0;-204.0;1470.0;-8.0;-226.0;-15.0;-1137.0;707.0;-456.0;62.0;-190.0;40.0;1608.0;544.0;-2886.0;91.0;19.0;44.0;-344.0;369.0;-2385.0;-1.0;93.0;0.0;178.0;99.0;-1566.0;16.0;112.0;-5.0;-12.0;253.0;-435.0;46.0;72.0;7.0;-63.0;46.0;273.0;67.0;25.0;18.0;80.0;-101.0;568.0;57.0;2.0;17.0;181.0;-245.0;658.0;33.0;-12.0;7.0;-12.0;-136.0;502.0;23.0;-8.0;0.0;-67.0;-115.0;399.0;17.0;-21.0;-4.0;-268.0;-19.0;251.0;15.0;-21.0;-2.0;-92.0;-5.0;119.0;10.0;-24.0;1.0;17.0;-41.0;34.0DOWN;-81.0;82.0;-16.0;579.0;-374.0;1036.0;-105.0;-3.0;-35.0;-660.0;-258.0;2699.0;-133.0;-179.0;1.0;-355.0;-198.0;1816.0;-14.0;-187.0;4.0;-854.0;570.0;-436.0;10.0;-129.0;20.0;590.0;417.0;-3102.0;72.0;53.0;-34.0;141.0;529.0;-2762.0;1.0;89.0;-2.0;266.0;-36.0;-1340.0;21.0;103.0;-1.0;25.0;56.0;-306.0;26.0;56.0;-5.0;-177.0;18.0;143.0;52.0;29.0;12.0;132.0;-93.0;323.0;60.0;15.0;10.0;43.0;-183.0;529.0;48.0;8.0;8.0;93.0;-184.0;561.0;32.0;-9.0;1.0;-119.0;-141.0;554.0;14.0;-22.0;-2.0;-143.0;-53.0;357.0;6.0;-29.0;-2.0;-69.0;-21.0;144.0;5.0;-21.0;0.0;4.0;32.0;23.0DOWN;-96.0;49.0;-28.0;-23.0;-165.0;2153.0;-167.0;-131.0;-17.0;-1958.0;-598.0;3179.0;-119.0;-227.0;-90.0;-267.0;18.0;882.0;20.0;-146.0;26.0;-474.0;398.0;-1657.0;95.0;-8.0;10.0;1889.0;661.0;-3489.0;68.0;74.0;34.0;-879.0;320.0;-1452.0;-17.0;87.0;-6.0;463.0;-102.0;-1113.0;-1.0;107.0;-20.0;-295.0;186.0;-261.0;27.0;27.0;-5.0;-3.0;153.0;24.0;50.0;10.0;7.0;118.0;81.0;157.0;58.0;5.0;13.0;353.0;-102.0;282.0;49.0;23.0;14.0;235.0;-219.0;430.0;33.0;28.0;4.0;150.0;-261.0;554.0;26.0;-7.0;14.0;-438.0;-126.0;559.0;15.0;-39.0;7.0;-185.0;-99.0;286.0;9.0;-38.0;2.0;-310.0;-30.0;103.0DOWN;-95.0;9.0;-25.0;-328.0;-320.0;2351.0;-136.0;-147.0;1.0;-610.0;-326.0;2552.0;-54.0;-159.0;-62.0;-948.0;139.0;343.0;15.0;-128.0;15.0;110.0;358.0;-2274.0;88.0;38.0;-22.0;701.0;495.0;-3128.0;7.0;43.0;18.0;15.0;241.0;-1486.0;-10.0;93.0;-10.0;249.0;224.0;-826.0;6.0;63.0;-6.0;-149.0;147.0;-208.0;41.0;21.0;6.0;11.0;21.0;157.0;56.0;14.0;10.0;235.0;-74.0;345.0;49.0;7.0;9.0;91.0;-154.0;487.0;35.0;7.0;7.0;157.0;-190.0;425.0;24.0;-4.0;1.0;-286.0;-146.0;376.0;25.0;-13.0;2.0;-126.0;-62.0;289.0;19.0;-25.0;0.0;-81.0;-32.0;219.0;13.0;-12.0;-4.0;39.0;-44.0;108.0DOWN;-59.0;121.0;7.0;473.0;-298.0;1873.0;-169.0;-90.0;-19.0;-1475.0;-532.0;3029.0;-115.0;-196.0;-92.0;-549.0;-245.0;660.0;-34.0;-217.0;-24.0;-855.0;464.0;-1584.0;92.0;-44.0;-2.0;1429.0;803.0;-3624.0;47.0;74.0;37.0;-177.0;759.0;-1869.0;-3.0;102.0;5.0;528.0;265.0;-1245.0;33.0;124.0;6.0;69.0;-25.0;-64.0;64.0;41.0;16.0;-160.0;-308.0;455.0;62.0;13.0;4.0;-38.0;-402.0;653.0;44.0;-6.0;-1.0;-168.0;-193.0;568.0;36.0;0.0;2.0;202.0;-49.0;450.0;23.0;-14.0;3.0;-33.0;-63.0;381.0;21.0;-16.0;0.0;-87.0;-75.0;269.0;11.0;-26.0;-3.0;-31.0;-67.0;118.0;9.0;-16.0;-3.0;-79.0;-24.0;39.0DOWN;-69.0;77.0;-19.0;494.0;-122.0;2044.0;-167.0;-127.0;12.0;-1201.0;-311.0;2710.0;-90.0;-195.0;-84.0;-1094.0;15.0;285.0;-23.0;-182.0;7.0;-808.0;248.0;-2031.0;101.0;37.0;-28.0;1340.0;542.0;-3451.0;33.0;85.0;27.0;19.0;505.0;-1479.0;1.0;96.0;-1.0;392.0;304.0;-933.0;10.0;66.0;-5.0;-135.0;188.0;-97.0;50.0;39.0;14.0;162.0;-83.0;224.0;62.0;17.0;16.0;86.0;-294.0;533.0;54.0;6.0;10.0;-110.0;-300.0;613.0;32.0;-9.0;2.0;-18.0;-231.0;529.0;22.0;-15.0;-2.0;-167.0;-96.0;338.0;21.0;-16.0;0.0;-47.0;-14.0;211.0;16.0;-24.0;1.0;-7.0;-34.0;137.0;6.0;-12.0;-5.0;-15.0;-58.0;83.0DOWN;-89.0;89.0;-16.0;1035.0;-490.0;1376.0;-177.0;-26.0;-41.0;-1733.0;-554.0;2855.0;-141.0;-178.0;-78.0;224.0;-140.0;679.0;10.0;-186.0;39.0;-1557.0;669.0;-939.0;87.0;-92.0;40.0;1806.0;701.0;-3452.0;74.0;74.0;33.0;-959.0;505.0;-1787.0;-24.0;83.0;-34.0;492.0;181.0;-1470.0;16.0;120.0;-11.0;29.0;182.0;-303.0;48.0;48.0;6.0;140.0;-126.0;290.0;61.0;38.0;10.0;43.0;-263.0;600.0;57.0;-3.0;8.0;-32.0;-189.0;665.0;38.0;-16.0;4.0;36.0;-64.0;448.0;35.0;-15.0;-1.0;-26.0;-46.0;332.0;28.0;-23.0;2.0;-105.0;-36.0;207.0;22.0;-13.0;2.0;7.0;-52.0;170.0;9.0;-17.0;0.0;-2.0;-82.0;117.0DOWN;-159.0;51.0;1.0;-1859.0;-186.0;2897.0;-140.0;-152.0;-67.0;-275.0;16.0;752.0;-21.0;-258.0;24.0;-1457.0;515.0;-863.0;83.0;-160.0;-2.0;1782.0;235.0;-3583.0;61.0;58.0;27.0;-452.0;390.0;-2054.0;7.0;91.0;-14.0;288.0;144.0;-1326.0;-1.0;120.0;-11.0;118.0;231.0;-291.0;47.0;71.0;8.0;9.0;-104.0;402.0;68.0;35.0;12.0;-7.0;-243.0;720.0;58.0;4.0;4.0;-122.0;-148.0;697.0;52.0;-25.0;0.0;-5.0;-59.0;531.0;35.0;-28.0;-3.0;7.0;-93.0;377.0;24.0;-31.0;-4.0;-5.0;-139.0;235.0;8.0;-18.0;-10.0;74.0;-113.0;114.0;0.0;-14.0;-8.0;-22.0;-37.0;11.0;-2.0;-10.0;-3.0;31.0;36.0;-29.0DOWN;-84.0;156.0;8.0;-202.0;-599.0;2049.0;-176.0;-142.0;-33.0;-696.0;-724.0;2846.0;-121.0;-205.0;-102.0;-873.0;123.0;461.0;0.0;-257.0;-3.0;-44.0;765.0;-2032.0;87.0;21.0;10.0;859.0;759.0;-3734.0;54.0;90.0;43.0;-87.0;393.0;-1968.0;-8.0;93.0;-11.0;588.0;145.0;-946.0;41.0;124.0;2.0;-146.0;60.0;200.0;64.0;68.0;16.0;29.0;-348.0;832.0;72.0;29.0;16.0;-352.0;-318.0;1029.0;45.0;-45.0;7.0;-181.0;-170.0;806.0;31.0;-65.0;0.0;115.0;-50.0;333.0;15.0;-35.0;-8.0;-33.0;-53.0;79.0;12.0;-14.0;-1.0;12.0;-20.0;-8.0;4.0;-8.0;-2.0;-36.0;11.0;9.0;-3.0;-2.0;-3.0;15.0;24.0;-36.0DOWN;-58.0;194.0;8.0;-211.0;-429.0;2041.0;-186.0;-68.0;-30.0;-777.0;-650.0;2818.0;-149.0;-192.0;-60.0;-734.0;-22.0;878.0;-41.0;-281.0;0.0;-73.0;433.0;-1365.0;95.0;-59.0;29.0;652.0;756.0;-3190.0;68.0;62.0;16.0;-95.0;518.0;-2103.0;-6.0;79.0;-17.0;285.0;304.0;-1527.0;14.0;116.0;-9.0;159.0;200.0;-365.0;52.0;48.0;10.0;197.0;-149.0;258.0;69.0;50.0;10.0;-28.0;-246.0;603.0;66.0;4.0;17.0;64.0;-192.0;698.0;52.0;5.0;10.0;-119.0;-80.0;624.0;37.0;-17.0;8.0;-92.0;-106.0;525.0;22.0;-33.0;-1.0;-135.0;-132.0;310.0;20.0;-22.0;-1.0;-23.0;-84.0;170.0;7.0;-25.0;1.0;50.0;-69.0;43.0DOWN;-81.0;133.0;9.0;132.0;-316.0;2174.0;-171.0;-98.0;-17.0;-1018.0;-510.0;3172.0;-97.0;-212.0;-54.0;19.0;-56.0;753.0;-9.0;-230.0;1.0;-371.0;525.0;-1731.0;102.0;-37.0;14.0;1033.0;581.0;-3612.0;36.0;68.0;12.0;-464.0;343.0;-1993.0;-9.0;78.0;-25.0;238.0;116.0;-1304.0;9.0;118.0;-13.0;171.0;184.0;-246.0;43.0;54.0;12.0;125.0;-38.0;287.0;58.0;59.0;14.0;45.0;-237.0;639.0;58.0;5.0;8.0;-154.0;-160.0;727.0;54.0;-12.0;5.0;-15.0;-100.0;677.0;33.0;-49.0;3.0;-7.0;-47.0;425.0;22.0;-35.0;3.0;-59.0;-65.0;184.0;10.0;-23.0;-1.0;-35.0;-48.0;44.0;-1.0;-7.0;-5.0;-25.0;-13.0;-1.0DOWN;-79.0;98.0;-17.0;923.0;-163.0;1275.0;-167.0;-5.0;-22.0;-1781.0;-244.0;3487.0;-70.0;-153.0;-67.0;80.0;130.0;659.0;-4.0;-213.0;15.0;-1192.0;338.0;-1223.0;96.0;-124.0;6.0;2001.0;424.0;-4347.0;22.0;49.0;33.0;-765.0;415.0;-1933.0;-12.0;98.0;-12.0;573.0;148.0;-1083.0;20.0;111.0;1.0;-212.0;207.0;-56.0;48.0;58.0;9.0;259.0;-217.0;409.0;64.0;26.0;13.0;-169.0;-146.0;702.0;57.0;1.0;5.0;51.0;-160.0;731.0;45.0;-26.0;4.0;-25.0;-46.0;611.0;31.0;-28.0;1.0;-36.0;-96.0;373.0;14.0;-39.0;3.0;-65.0;-90.0;149.0;5.0;-17.0;-1.0;-86.0;-59.0;51.0;3.0;-14.0;-1.0;-25.0;-9.0;-1.0DOWN;-43.0;125.0;12.0;58.0;-290.0;2331.0;-149.0;-84.0;-18.0;-434.0;-395.0;2535.0;-86.0;-215.0;-41.0;-884.0;139.0;543.0;-54.0;-222.0;-3.0;-230.0;342.0;-2262.0;101.0;-26.0;14.0;633.0;428.0;-3099.0;25.0;78.0;-5.0;-197.0;251.0;-1823.0;13.0;99.0;-22.0;232.0;281.0;-947.0;6.0;50.0;-16.0;-8.0;180.0;-128.0;52.0;35.0;14.0;275.0;-16.0;292.0;44.0;26.0;6.0;266.0;-281.0;510.0;50.0;37.0;13.0;-164.0;-138.0;563.0;32.0;2.0;6.0;-13.0;-100.0;488.0;36.0;-21.0;5.0;-200.0;-28.0;372.0;36.0;-20.0;5.0;34.0;-43.0;304.0;23.0;-29.0;3.0;62.0;-149.0;207.0;10.0;-22.0;0.0;-78.0;-36.0;137.0DOWN;-80.0;157.0;-4.0;295.0;-362.0;1684.0;-172.0;-67.0;-12.0;-888.0;-503.0;2824.0;-87.0;-191.0;-45.0;-521.0;38.0;961.0;4.0;-254.0;22.0;-307.0;491.0;-1569.0;107.0;-59.0;14.0;996.0;530.0;-3550.0;47.0;71.0;22.0;98.0;229.0;-2189.0;-8.0;110.0;-25.0;159.0;-3.0;-963.0;21.0;124.0;-8.0;-145.0;73.0;167.0;52.0;57.0;13.0;86.0;-89.0;683.0;53.0;8.0;12.0;-179.0;-45.0;779.0;48.0;-17.0;6.0;53.0;-62.0;587.0;36.0;-33.0;3.0;-73.0;-60.0;335.0;22.0;-27.0;-2.0;20.0;-87.0;139.0;15.0;-13.0;-2.0;-60.0;-4.0;83.0;8.0;-8.0;-4.0;6.0;-11.0;63.0;6.0;-6.0;-1.0;44.0;-2.0;42.0DOWN;-114.0;92.0;-39.0;-1153.0;-712.0;2071.0;-129.0;-136.0;-95.0;652.0;-605.0;1628.0;-7.0;-241.0;-81.0;48.0;508.0;-223.0;45.0;-193.0;-9.0;1333.0;954.0;-2758.0;59.0;58.0;42.0;-406.0;1083.0;-2716.0;-12.0;109.0;54.0;117.0;404.0;-1392.0;7.0;139.0;40.0;319.0;7.0;36.0;60.0;90.0;36.0;-224.0;-272.0;818.0;64.0;18.0;19.0;-203.0;-340.0;880.0;57.0;-36.0;7.0;-432.0;-225.0;669.0;39.0;-41.0;-5.0;78.0;-144.0;315.0;26.0;-41.0;-7.0;-55.0;-58.0;196.0;11.0;-17.0;-7.0;44.0;-19.0;97.0;2.0;-22.0;0.0;3.0;-28.0;23.0;-5.0;4.0;-4.0;-53.0;-26.0;-18.0;-2.0;1.0;-2.0;21.0;-11.0;-14.0DOWN;-100.0;29.0;24.0;-135.0;931.0;1771.0;-130.0;-42.0;54.0;-447.0;446.0;563.0;-32.0;-188.0;149.0;-945.0;-118.0;-709.0;19.0;-49.0;73.0;-498.0;-1340.0;-2017.0;98.0;-24.0;13.0;-634.0;-1057.0;-1160.0;6.0;92.0;-115.0;-262.0;-757.0;-639.0;25.0;30.0;-77.0;80.0;89.0;-317.0;21.0;21.0;-46.0;113.0;195.0;-7.0;50.0;-7.0;-4.0;270.0;257.0;183.0;41.0;-3.0;-2.0;351.0;219.0;296.0;34.0;-3.0;9.0;302.0;227.0;340.0;14.0;0.0;7.0;155.0;60.0;293.0;14.0;3.0;8.0;-77.0;24.0;256.0;4.0;-7.0;3.0;-30.0;-41.0;158.0;6.0;-6.0;2.0;-73.0;36.0;114.0;4.0;-8.0;4.0;-37.0;-18.0;21.0DOWN;-51.0;-55.0;21.0;-594.0;1185.0;2894.0;-153.0;-156.0;-14.0;1953.0;652.0;-104.0;-7.0;-224.0;112.0;-698.0;755.0;-878.0;-9.0;-29.0;15.0;613.0;-1373.0;-3472.0;139.0;64.0;41.0;-1676.0;-712.0;-660.0;-13.0;63.0;-70.0;983.0;-523.0;-445.0;3.0;65.0;-61.0;162.0;13.0;-117.0;15.0;55.0;-17.0;216.0;80.0;123.0;37.0;59.0;-7.0;-71.0;61.0;367.0;50.0;36.0;12.0;-30.0;135.0;518.0;30.0;18.0;6.0;-118.0;135.0;502.0;28.0;-10.0;15.0;-232.0;70.0;366.0;15.0;-23.0;15.0;-241.0;80.0;235.0;6.0;-41.0;14.0;-40.0;84.0;109.0;3.0;-18.0;15.0;-4.0;46.0;22.0;-3.0;-18.0;5.0;62.0;-29.0;-22.0DOWN;-41.0;-51.0;4.0;-329.0;1125.0;2541.0;-115.0;-171.0;82.0;1914.0;859.0;893.0;-47.0;-215.0;129.0;-767.0;514.0;-621.0;-32.0;-74.0;32.0;663.0;-1153.0;-3009.0;80.0;63.0;-30.0;-1211.0;-867.0;-1792.0;-2.0;102.0;-81.0;1150.0;-515.0;-828.0;26.0;91.0;-58.0;-302.0;-24.0;-122.0;26.0;39.0;-29.0;13.0;162.0;213.0;35.0;15.0;-9.0;-146.0;153.0;285.0;45.0;3.0;5.0;187.0;225.0;341.0;40.0;8.0;9.0;5.0;240.0;371.0;32.0;-11.0;19.0;141.0;136.0;351.0;19.0;-23.0;15.0;-73.0;49.0;250.0;7.0;-15.0;5.0;-28.0;-38.0;124.0;3.0;-13.0;4.0;-47.0;-29.0;77.0;-1.0;-3.0;1.0;18.0;-57.0;19.0DOWN;-77.0;73.0;-41.0;-483.0;-121.0;1385.0;-129.0;-103.0;2.0;-238.0;253.0;2194.0;-109.0;-194.0;10.0;-539.0;315.0;521.0;2.0;-178.0;64.0;638.0;251.0;-1527.0;59.0;-14.0;8.0;146.0;-199.0;-3032.0;64.0;78.0;-8.0;658.0;-134.0;-1869.0;-1.0;98.0;-42.0;57.0;-146.0;-733.0;26.0;94.0;-23.0;414.0;3.0;127.0;45.0;36.0;1.0;-147.0;22.0;522.0;39.0;27.0;4.0;73.0;-34.0;573.0;35.0;0.0;19.0;-236.0;60.0;491.0;24.0;-2.0;17.0;-237.0;7.0;394.0;21.0;-29.0;16.0;-192.0;26.0;283.0;12.0;-20.0;7.0;-52.0;-2.0;136.0;6.0;-23.0;5.0;110.0;15.0;36.0;1.0;3.0;3.0;33.0;41.0;2.0DOWN;-34.0;92.0;-39.0;-315.0;265.0;1272.0;-97.0;-22.0;-5.0;-198.0;475.0;1764.0;-95.0;-184.0;32.0;-115.0;281.0;788.0;-33.0;-197.0;81.0;60.0;-71.0;-1032.0;31.0;-102.0;44.0;275.0;-628.0;-2424.0;46.0;29.0;5.0;92.0;-481.0;-2058.0;-11.0;93.0;-62.0;420.0;-345.0;-1315.0;27.0;121.0;-59.0;245.0;16.0;-100.0;64.0;79.0;-24.0;-47.0;63.0;544.0;53.0;43.0;-8.0;-205.0;61.0;792.0;44.0;0.0;9.0;-201.0;206.0;649.0;36.0;-29.0;17.0;4.0;187.0;437.0;33.0;-34.0;20.0;50.0;137.0;311.0;20.0;-30.0;12.0;-103.0;2.0;213.0;7.0;-24.0;4.0;88.0;-31.0;104.0;-5.0;-15.0;1.0;11.0;-59.0;9.0DOWN;-47.0;129.0;-38.0;-59.0;227.0;1397.0;-119.0;-36.0;1.0;-12.0;516.0;2127.0;-110.0;-200.0;48.0;-185.0;312.0;757.0;-14.0;-221.0;85.0;-79.0;-99.0;-1489.0;65.0;-60.0;25.0;137.0;-698.0;-2782.0;78.0;72.0;-20.0;333.0;-458.0;-1845.0;-10.0;101.0;-62.0;171.0;-286.0;-752.0;25.0;87.0;-30.0;98.0;94.0;78.0;45.0;57.0;-10.0;-20.0;40.0;501.0;44.0;33.0;3.0;109.0;60.0;666.0;41.0;16.0;7.0;-208.0;86.0;664.0;27.0;-25.0;12.0;-64.0;123.0;439.0;23.0;-37.0;14.0;-118.0;112.0;234.0;10.0;-35.0;8.0;-12.0;72.0;95.0;6.0;-19.0;5.0;-44.0;42.0;16.0;1.0;-11.0;1.0;-35.0;2.0;-2.0DOWN;-69.0;85.0;-40.0;-1030.0;595.0;2270.0;-137.0;-139.0;14.0;650.0;472.0;1480.0;-34.0;-238.0;82.0;-1293.0;391.0;324.0;4.0;-179.0;62.0;1222.0;-639.0;-2582.0;85.0;42.0;-1.0;-424.0;-608.0;-2205.0;-12.0;90.0;-65.0;1027.0;-362.0;-1622.0;16.0;110.0;-40.0;-25.0;-2.0;-500.0;43.0;89.0;-18.0;-149.0;95.0;268.0;62.0;36.0;8.0;65.0;26.0;677.0;42.0;8.0;5.0;-62.0;71.0;752.0;28.0;-13.0;8.0;8.0;106.0;613.0;20.0;-30.0;12.0;-172.0;104.0;348.0;19.0;-27.0;15.0;-74.0;8.0;144.0;12.0;-25.0;13.0;4.0;-32.0;-3.0;8.0;-4.0;3.0;-80.0;-38.0;3.0;-1.0;-3.0;-2.0;16.0;-19.0;-3.0DOWN;-73.0;115.0;-25.0;270.0;-79.0;1296.0;-170.0;16.0;-33.0;-613.0;466.0;2450.0;-97.0;-149.0;3.0;430.0;334.0;882.0;-4.0;-215.0;82.0;-273.0;275.0;-1107.0;100.0;-134.0;70.0;565.0;-591.0;-3007.0;40.0;35.0;5.0;-298.0;-413.0;-2042.0;-10.0;94.0;-72.0;36.0;-278.0;-1242.0;16.0;117.0;-42.0;163.0;95.0;-306.0;50.0;46.0;-6.0;47.0;64.0;340.0;70.0;9.0;13.0;95.0;110.0;705.0;48.0;-10.0;2.0;20.0;24.0;656.0;36.0;-1.0;1.0;-7.0;70.0;451.0;18.0;5.0;-3.0;-25.0;-1.0;266.0;20.0;-7.0;10.0;-36.0;50.0;178.0;16.0;-9.0;10.0;-76.0;12.0;163.0;14.0;-13.0;8.0;-24.0;3.0;132.0DOWN;-37.0;95.0;-32.0;225.0;43.0;1218.0;-99.0;-21.0;7.0;-1257.0;967.0;2766.0;-162.0;-185.0;-1.0;-179.0;469.0;1259.0;-61.0;-189.0;70.0;-858.0;269.0;-645.0;29.0;-54.0;32.0;933.0;-747.0;-2668.0;106.0;23.0;29.0;-224.0;-413.0;-1643.0;6.0;79.0;-38.0;539.0;-429.0;-1351.0;7.0;55.0;-45.0;-61.0;-182.0;-772.0;21.0;72.0;-44.0;-1.0;134.0;-271.0;44.0;27.0;-9.0;126.0;81.0;190.0;55.0;12.0;0.0;-65.0;52.0;398.0;52.0;7.0;4.0;236.0;-29.0;526.0;37.0;4.0;2.0;-13.0;28.0;514.0;19.0;5.0;3.0;100.0;17.0;396.0;14.0;-11.0;7.0;-124.0;39.0;293.0;14.0;-11.0;7.0;-73.0;17.0;170.0DOWN;-40.0;137.0;-24.0;209.0;-366.0;379.0;-52.0;22.0;6.0;-662.0;631.0;2486.0;-141.0;-59.0;0.0;1246.0;276.0;1203.0;-57.0;-174.0;29.0;-902.0;579.0;225.0;-25.0;-128.0;11.0;781.0;-428.0;-2386.0;101.0;-60.0;47.0;-1245.0;-9.0;-1519.0;4.0;-8.0;-10.0;932.0;-330.0;-1283.0;2.0;64.0;-18.0;50.0;-281.0;-877.0;2.0;49.0;-40.0;310.0;-145.0;-302.0;44.0;84.0;-13.0;-3.0;-32.0;142.0;44.0;48.0;-1.0;-126.0;34.0;496.0;48.0;32.0;9.0;-214.0;54.0;523.0;37.0;-9.0;10.0;-313.0;119.0;428.0;32.0;-9.0;8.0;8.0;93.0;322.0;23.0;-28.0;16.0;127.0;62.0;201.0;22.0;-14.0;12.0;-59.0;40.0;163.0DOWN;-103.0;22.0;-14.0;-802.0;712.0;2358.0;-144.0;-151.0;30.0;582.0;340.0;1477.0;-54.0;-213.0;52.0;-633.0;315.0;-669.0;54.0;-160.0;73.0;723.0;-522.0;-2788.0;107.0;43.0;-11.0;-441.0;-291.0;-2389.0;-7.0;87.0;-55.0;142.0;-511.0;-1106.0;8.0;100.0;-56.0;270.0;-72.0;-329.0;37.0;80.0;-20.0;-176.0;15.0;301.0;53.0;38.0;-2.0;-25.0;83.0;601.0;43.0;24.0;5.0;38.0;153.0;664.0;28.0;-15.0;11.0;-1.0;177.0;565.0;22.0;-24.0;13.0;-34.0;79.0;312.0;22.0;-35.0;14.0;-127.0;2.0;164.0;11.0;-18.0;9.0;38.0;-65.0;46.0;0.0;-12.0;-1.0;-36.0;-44.0;35.0;-3.0;3.0;-5.0;76.0;-23.0;-9.0DOWN;-31.0;153.0;-14.0;535.0;-128.0;930.0;-112.0;8.0;-29.0;-1288.0;499.0;2846.0;-140.0;-166.0;-3.0;504.0;182.0;1591.0;-41.0;-251.0;62.0;-480.0;450.0;-545.0;47.0;-130.0;84.0;1217.0;-565.0;-3182.0;104.0;38.0;26.0;-637.0;-269.0;-2441.0;-22.0;77.0;-51.0;100.0;-418.0;-1301.0;8.0;109.0;-53.0;192.0;-51.0;-461.0;32.0;80.0;-22.0;-133.0;46.0;279.0;52.0;45.0;-2.0;197.0;-9.0;652.0;42.0;26.0;1.0;27.0;124.0;707.0;35.0;10.0;7.0;68.0;93.0;473.0;27.0;-15.0;7.0;-258.0;135.0;301.0;29.0;-32.0;10.0;-106.0;69.0;210.0;17.0;-39.0;12.0;57.0;28.0;151.0;7.0;-20.0;5.0;-55.0;-5.0;106.0DOWN;-34.0;113.0;-17.0;596.0;319.0;1725.0;-140.0;-110.0;63.0;677.0;763.0;2343.0;-49.0;-140.0;53.0;-865.0;336.0;325.0;-38.0;-219.0;84.0;-202.0;-282.0;-1992.0;89.0;19.0;-17.0;-651.0;-985.0;-3109.0;11.0;15.0;-36.0;702.0;-546.0;-1495.0;5.0;114.0;-71.0;-192.0;-192.0;-580.0;22.0;91.0;-48.0;215.0;112.0;172.0;51.0;46.0;-14.0;-172.0;195.0;472.0;57.0;12.0;1.0;91.0;147.0;598.0;49.0;1.0;4.0;-11.0;190.0;551.0;44.0;-11.0;9.0;38.0;87.0;541.0;22.0;-38.0;11.0;-24.0;24.0;336.0;14.0;-39.0;11.0;-79.0;15.0;179.0;-3.0;-28.0;6.0;56.0;-31.0;-9.0;-4.0;2.0;-2.0;-97.0;7.0;-4.0DOWN;-65.0;119.0;-31.0;102.0;64.0;1614.0;-149.0;-103.0;14.0;-376.0;440.0;2752.0;-65.0;-213.0;10.0;-172.0;211.0;735.0;-13.0;-222.0;77.0;55.0;177.0;-1571.0;81.0;-27.0;18.0;275.0;-467.0;-3517.0;19.0;59.0;-5.0;92.0;-195.0;-2100.0;-5.0;111.0;-62.0;48.0;-308.0;-1041.0;17.0;134.0;-46.0;144.0;38.0;93.0;59.0;71.0;-3.0;-219.0;82.0;653.0;64.0;17.0;5.0;-193.0;109.0;778.0;61.0;-29.0;16.0;22.0;90.0;585.0;43.0;-25.0;10.0;180.0;6.0;427.0;24.0;-24.0;5.0;68.0;-37.0;320.0;14.0;-11.0;0.0;-68.0;-39.0;204.0;2.0;-17.0;-2.0;7.0;-31.0;69.0;3.0;-15.0;3.0;-54.0;-2.0;-3.0DOWN;-74.0;41.0;4.0;127.0;630.0;2524.0;-177.0;-94.0;38.0;840.0;754.0;2807.0;-127.0;-123.0;-2.0;80.0;403.0;510.0;-65.0;-156.0;64.0;-262.0;-210.0;-2312.0;84.0;-34.0;34.0;-707.0;-774.0;-3388.0;42.0;-63.0;63.0;-701.0;-499.0;-1924.0;26.0;101.0;-52.0;-91.0;-647.0;-1150.0;27.0;96.0;-95.0;-1150.0;-205.0;-488.0;45.0;33.0;-65.0;-697.0;216.0;88.0;61.0;17.0;-44.0;-237.0;384.0;457.0;60.0;-46.0;11.0;1235.0;561.0;592.0;54.0;28.0;1.0;1041.0;343.0;547.0;41.0;-27.0;14.0;691.0;1.0;463.0;21.0;20.0;2.0;-89.0;-99.0;342.0;8.0;-15.0;13.0;-293.0;-176.0;229.0;-2.0;-3.0;3.0;-171.0;-92.0;52.0DOWN;-51.0;135.0;-13.0;1724.0;719.0;1068.0;-129.0;-38.0;15.0;-1149.0;1401.0;2108.0;-187.0;-74.0;4.0;298.0;1518.0;1014.0;-134.0;20.0;148.0;-2679.0;-383.0;-1611.0;1.0;0.0;150.0;-240.0;-1532.0;-2467.0;73.0;58.0;93.0;-2259.0;-2700.0;-1590.0;59.0;-170.0;-53.0;312.0;-1154.0;70.0;36.0;38.0;-112.0;-19.0;-858.0;-342.0;37.0;-76.0;-91.0;-446.0;-93.0;-596.0;56.0;30.0;-63.0;349.0;181.0;-173.0;58.0;-1.0;-34.0;-45.0;585.0;81.0;65.0;3.0;7.0;703.0;534.0;476.0;54.0;1.0;-2.0;-49.0;446.0;410.0;45.0;-24.0;14.0;591.0;211.0;466.0;18.0;-12.0;0.0;-10.0;127.0;384.0;14.0;-13.0;4.0;115.0;107.0;294.0DOWN;-126.0;33.0;-56.0;107.0;67.0;1859.0;-119.0;-159.0;50.0;3477.0;921.0;3347.0;-137.0;13.0;-165.0;2654.0;209.0;888.0;39.0;-95.0;219.0;-2093.0;1234.0;-2517.0;-26.0;111.0;16.0;-2737.0;-934.0;-3739.0;82.0;-66.0;236.0;-3463.0;-634.0;-2250.0;-29.0;23.0;-135.0;1839.0;-1733.0;-152.0;65.0;0.0;-40.0;-566.0;-325.0;-792.0;27.0;-29.0;-63.0;115.0;327.0;-407.0;64.0;28.0;-17.0;184.0;430.0;77.0;65.0;-18.0;-5.0;336.0;499.0;350.0;66.0;22.0;4.0;479.0;344.0;557.0;52.0;13.0;-7.0;223.0;179.0;560.0;41.0;29.0;-4.0;95.0;172.0;565.0;23.0;-8.0;8.0;39.0;170.0;568.0;14.0;-28.0;11.0;100.0;29.0;298.0DOWN;-62.0;122.0;-76.0;-74.0;-826.0;996.0;-60.0;-149.0;86.0;1959.0;934.0;3231.0;-150.0;-134.0;-59.0;4916.0;1488.0;974.0;81.0;112.0;170.0;-3091.0;1375.0;-882.0;-49.0;0.0;-23.0;-265.0;-692.0;-3393.0;100.0;151.0;140.0;-6019.0;-1484.0;-1738.0;-136.0;-295.0;-73.0;3074.0;-1069.0;-838.0;23.0;99.0;-40.0;-1610.0;-494.0;-668.0;18.0;-81.0;-62.0;850.0;179.0;-429.0;59.0;63.0;-37.0;-129.0;312.0;-59.0;71.0;33.0;-21.0;84.0;433.0;391.0;55.0;11.0;-11.0;33.0;361.0;618.0;51.0;9.0;5.0;285.0;305.0;683.0;35.0;-23.0;7.0;130.0;145.0;507.0;30.0;-17.0;8.0;119.0;47.0;384.0;16.0;-30.0;3.0;88.0;-84.0;169.0DOWN;-72.0;113.0;-46.0;-354.0;-666.0;501.0;-99.0;-42.0;2.0;828.0;-120.0;2600.0;-146.0;-177.0;-5.0;4277.0;1644.0;2104.0;-45.0;58.0;126.0;-1338.0;933.0;113.0;-20.0;-76.0;76.0;304.0;410.0;-2668.0;81.0;107.0;83.0;-4358.0;-1448.0;-2708.0;17.0;-212.0;-82.0;1019.0;-515.0;-1416.0;29.0;96.0;-98.0;-1364.0;-319.0;-655.0;27.0;-2.0;-93.0;-158.0;144.0;-234.0;40.0;12.0;-31.0;871.0;220.0;71.0;54.0;32.0;-16.0;378.0;364.0;178.0;48.0;-2.0;10.0;1041.0;277.0;412.0;51.0;58.0;14.0;63.0;236.0;592.0;34.0;-9.0;20.0;252.0;-52.0;651.0;21.0;5.0;15.0;-253.0;-69.0;443.0;4.0;-27.0;9.0;-44.0;-208.0;220.0DOWN;-67.0;117.0;-21.0;65.0;-392.0;1471.0;-92.0;18.0;-42.0;-1216.0;571.0;3490.0;-158.0;-211.0;62.0;1975.0;1403.0;1691.0;-23.0;-44.0;105.0;-2354.0;484.0;-796.0;1.0;-159.0;88.0;1216.0;-427.0;-3542.0;103.0;63.0;-25.0;-2730.0;-1280.0;-2532.0;-12.0;-110.0;-75.0;2016.0;-192.0;-1431.0;23.0;78.0;-52.0;-158.0;-86.0;-650.0;38.0;60.0;-42.0;788.0;112.0;-24.0;59.0;78.0;-11.0;146.0;-121.0;702.0;58.0;69.0;3.0;-24.0;20.0;887.0;38.0;2.0;20.0;-562.0;136.0;979.0;25.0;-25.0;15.0;-349.0;96.0;488.0;20.0;-41.0;7.0;-457.0;70.0;285.0;27.0;-28.0;13.0;217.0;121.0;1.0;15.0;-14.0;15.0;158.0;74.0;105.0DOWN;-88.0;24.0;-2.0;432.0;389.0;2213.0;-156.0;-107.0;19.0;-317.0;759.0;3684.0;-126.0;-222.0;-13.0;-465.0;212.0;1151.0;17.0;-129.0;47.0;-587.0;69.0;-1689.0;93.0;-37.0;1.0;557.0;-572.0;-4104.0;68.0;47.0;8.0;-497.0;63.0;-2248.0;-29.0;74.0;-55.0;448.0;-43.0;-1425.0;5.0;114.0;-32.0;177.0;194.0;-379.0;61.0;72.0;2.0;376.0;24.0;372.0;61.0;49.0;4.0;195.0;-202.0;841.0;53.0;5.0;8.0;-19.0;-101.0;885.0;24.0;-12.0;1.0;11.0;22.0;519.0;24.0;-15.0;10.0;-216.0;63.0;282.0;28.0;-31.0;12.0;-94.0;-26.0;117.0;27.0;-13.0;4.0;-157.0;-28.0;151.0;19.0;-24.0;6.0;104.0;-135.0;92.0DOWN;-71.0;35.0;-7.0;-1066.0;656.0;2161.0;-135.0;-95.0;76.0;-93.0;2148.0;3102.0;-138.0;-130.0;-9.0;1683.0;701.0;858.0;-44.0;-60.0;133.0;-1072.0;203.0;-2676.0;0.0;77.0;0.0;-1584.0;-1926.0;-2997.0;73.0;37.0;109.0;-1882.0;-1315.0;-1886.0;9.0;2.0;-90.0;1109.0;-1498.0;116.0;33.0;-7.0;-68.0;-105.0;-709.0;-634.0;29.0;-23.0;-39.0;41.0;124.0;-448.0;23.0;-17.0;-27.0;176.0;251.0;-320.0;67.0;9.0;-5.0;168.0;396.0;-40.0;62.0;0.0;-9.0;35.0;247.0;373.0;76.0;16.0;-3.0;186.0;252.0;511.0;43.0;-12.0;-3.0;310.0;177.0;622.0;25.0;7.0;-6.0;200.0;250.0;573.0;4.0;-10.0;3.0;164.0;131.0;423.0