Lable;AccX1;AccY1;AccZ1;GyrX1;GyrY1;GyrZ1;AccX2;AccY2;AccZ2;GyrX2;GyrY2;GyrZ2;AccX3;AccY3;AccZ3;GyrX3;GyrY3;GyrZ3;AccX4;AccY4;AccZ4;GyrX4;GyrY4;GyrZ4;AccX5;AccY5;AccZ5;GyrX5;GyrY5;GyrZ5;AccX6;AccY6;AccZ6;GyrX6;GyrY6;GyrZ6;AccX7;AccY7;AccZ7;GyrX7;GyrY7;GyrZ7;AccX8;AccY8;AccZ8;GyrX8;GyrY8;GyrZ8;AccX9;AccY9;AccZ9;GyrX9;GyrY9;GyrZ9;AccX10;AccY10;AccZ10;GyrX10;GyrY10;GyrZ10;AccX11;AccY11;AccZ11;GyrX11;GyrY11;GyrZ11;AccX12;AccY12;AccZ12;GyrX12;GyrY12;GyrZ12;AccX13;AccY13;AccZ13;GyrX13;GyrY13;GyrZ13;AccX14;AccY14;AccZ14;GyrX14;GyrY14;GyrZ14;AccX15;AccY15;AccZ15;GyrX15;GyrY15;GyrZ15;AccX16;AccY16;AccZ16;GyrX16;GyrY16;GyrZ16LEFT2;-61.0;-191.0;-25.0;512.0;186.0;-756.0;-12.0;-90.0;-24.0;-6.0;245.0;-1803.0;31.0;154.0;4.0;-493.0;71.0;-1592.0;91.0;131.0;12.0;-728.0;420.0;-881.0;51.0;93.0;13.0;-598.0;222.0;-113.0;22.0;-22.0;11.0;147.0;308.0;404.0;-23.0;10.0;7.0;348.0;-267.0;512.0;-3.0;-7.0;-3.0;457.0;-200.0;502.0;9.0;-20.0;-9.0;75.0;-194.0;346.0;1.0;-12.0;-3.0;-145.0;56.0;319.0;-2.0;-31.0;4.0;39.0;31.0;159.0;-8.0;-7.0;1.0;45.0;-72.0;18.0;0.0;-4.0;-1.0;87.0;-25.0;9.0;0.0;-1.0;-3.0;-91.0;18.0;-17.0;-4.0;1.0;-1.0;-28.0;36.0;-3.0;1.0;2.0;2.0;-31.0;2.0;-4.0LEFT2;6.0;60.0;10.0;291.0;-230.0;675.0;-12.0;19.0;-1.0;1.0;-253.0;1025.0;-44.0;-123.0;14.0;355.0;5.0;818.0;-55.0;-133.0;-13.0;134.0;25.0;-115.0;-36.0;-90.0;-10.0;15.0;118.0;-1069.0;9.0;13.0;-29.0;-248.0;-65.0;-1570.0;38.0;61.0;-15.0;-782.0;265.0;-1316.0;55.0;54.0;11.0;-421.0;450.0;-844.0;51.0;55.0;23.0;-168.0;460.0;-190.0;19.0;34.0;28.0;187.0;136.0;125.0;-10.0;35.0;-5.0;309.0;-228.0;469.0;-11.0;-6.0;-7.0;288.0;-266.0;487.0;-5.0;-14.0;-21.0;203.0;-225.0;522.0;15.0;-35.0;1.0;105.0;-10.0;318.0;-7.0;-22.0;1.0;5.0;-35.0;168.0;1.0;-9.0;4.0;-36.0;0.0;66.0LEFT2;8.0;22.0;25.0;-16.0;-334.0;847.0;-48.0;-55.0;1.0;18.0;-149.0;926.0;-42.0;-137.0;1.0;462.0;-108.0;642.0;-69.0;-139.0;-21.0;631.0;102.0;-370.0;-23.0;-82.0;-25.0;681.0;240.0;-1136.0;-23.0;32.0;-8.0;-177.0;162.0;-1659.0;39.0;141.0;-6.0;-1331.0;277.0;-1438.0;85.0;115.0;24.0;-1330.0;181.0;-704.0;65.0;56.0;17.0;-599.0;527.0;33.0;26.0;-23.0;7.0;812.0;85.0;621.0;-28.0;13.0;-7.0;626.0;-44.0;618.0;-6.0;-42.0;-8.0;404.0;-501.0;410.0;0.0;-1.0;-8.0;-47.0;-113.0;235.0;9.0;-35.0;-5.0;27.0;-71.0;200.0;-9.0;0.0;0.0;79.0;64.0;171.0;-5.0;-9.0;3.0;22.0;-46.0;68.0LEFT2;-74.0;-136.0;-4.0;112.0;274.0;-809.0;3.0;-29.0;-13.0;-151.0;298.0;-1450.0;29.0;135.0;-16.0;-1105.0;300.0;-1465.0;41.0;81.0;17.0;-795.0;277.0;-851.0;55.0;94.0;31.0;-282.0;248.0;-220.0;32.0;11.0;6.0;340.0;-168.0;262.0;9.0;32.0;-21.0;315.0;-261.0;530.0;10.0;-42.0;-13.0;257.0;-70.0;460.0;-11.0;-18.0;-13.0;152.0;4.0;361.0;-1.0;-23.0;6.0;150.0;72.0;238.0;-14.0;-11.0;-3.0;-61.0;-131.0;129.0;4.0;-21.0;3.0;35.0;75.0;87.0;-1.0;5.0;3.0;-69.0;51.0;36.0;-9.0;-9.0;10.0;89.0;-34.0;39.0;0.0;12.0;1.0;7.0;-82.0;2.0;2.0;-9.0;-9.0;-4.0;-59.0;-20.0LEFT2;-1.0;103.0;25.0;-26.0;-73.0;1062.0;-48.0;-119.0;7.0;434.0;-514.0;964.0;-50.0;-164.0;-20.0;704.0;-96.0;265.0;-45.0;-205.0;-31.0;10.0;104.0;-983.0;3.0;27.0;-10.0;-301.0;709.0;-1361.0;29.0;92.0;14.0;-914.0;364.0;-1228.0;39.0;79.0;11.0;17.0;197.0;-540.0;28.0;50.0;2.0;-228.0;11.0;-255.0;10.0;9.0;4.0;129.0;-89.0;-50.0;14.0;20.0;-3.0;-2.0;-136.0;25.0;11.0;14.0;-9.0;-5.0;-108.0;165.0;2.0;-4.0;-2.0;240.0;-16.0;355.0;-5.0;6.0;-7.0;140.0;-67.0;329.0;-6.0;-17.0;12.0;197.0;-29.0;314.0;4.0;-7.0;3.0;1.0;-104.0;162.0;-2.0;-7.0;3.0;-66.0;-35.0;110.0LEFT2;-41.0;-79.0;2.0;141.0;-371.0;1222.0;-51.0;-99.0;8.0;73.0;499.0;1078.0;-117.0;-252.0;0.0;34.0;-170.0;-101.0;1.0;-71.0;-14.0;312.0;435.0;-1389.0;5.0;10.0;-44.0;21.0;-342.0;-1919.0;60.0;116.0;-3.0;-561.0;482.0;-1400.0;44.0;180.0;9.0;-589.0;209.0;-595.0;40.0;74.0;47.0;-119.0;178.0;374.0;31.0;33.0;9.0;472.0;-264.0;798.0;2.0;-61.0;-10.0;82.0;-275.0;682.0;2.0;-49.0;-26.0;-68.0;-49.0;242.0;-15.0;-48.0;2.0;62.0;119.0;101.0;-8.0;18.0;4.0;38.0;32.0;82.0;2.0;-5.0;8.0;32.0;-26.0;96.0;0.0;-1.0;-4.0;-66.0;-20.0;58.0;1.0;-11.0;-4.0;5.0;32.0;42.0LEFT2;11.0;83.0;-1.0;-8.0;-326.0;732.0;-20.0;-21.0;-26.0;374.0;-233.0;1190.0;-64.0;-179.0;9.0;98.0;289.0;680.0;-69.0;-217.0;-4.0;525.0;310.0;-566.0;-40.0;-63.0;-5.0;-91.0;359.0;-1721.0;10.0;98.0;-17.0;-356.0;-50.0;-1892.0;45.0;177.0;18.0;-869.0;131.0;-1046.0;79.0;104.0;39.0;-540.0;174.0;88.0;49.0;-13.0;15.0;154.0;-98.0;499.0;17.0;-32.0;-26.0;443.0;-92.0;621.0;-5.0;-43.0;-29.0;346.0;-251.0;167.0;-11.0;17.0;-7.0;98.0;166.0;215.0;1.0;1.0;14.0;-36.0;-13.0;215.0;-5.0;0.0;3.0;-55.0;-19.0;236.0;5.0;-17.0;-6.0;-33.0;-64.0;81.0;-6.0;-8.0;-9.0;11.0;21.0;31.0LEFT2;23.0;26.0;-10.0;196.0;-344.0;844.0;-16.0;-8.0;-50.0;-39.0;79.0;1224.0;-60.0;-240.0;42.0;610.0;348.0;679.0;-59.0;-152.0;14.0;269.0;315.0;-839.0;-43.0;-85.0;13.0;125.0;-111.0;-1831.0;62.0;172.0;-34.0;-1147.0;24.0;-1783.0;44.0;159.0;-4.0;-1132.0;303.0;-755.0;61.0;49.0;24.0;-252.0;341.0;44.0;16.0;8.0;-2.0;538.0;23.0;394.0;9.0;-22.0;-15.0;606.0;-197.0;330.0;-5.0;18.0;-14.0;160.0;-121.0;312.0;0.0;-13.0;11.0;130.0;13.0;363.0;-11.0;-19.0;13.0;97.0;-107.0;369.0;4.0;-29.0;4.0;-34.0;-84.0;117.0;-1.0;-19.0;-10.0;-43.0;-17.0;4.0;-4.0;7.0;-6.0;-43.0;54.0;-28.0LEFT2;-10.0;85.0;19.0;62.0;-203.0;715.0;-10.0;41.0;-9.0;78.0;-384.0;1165.0;-41.0;-150.0;-4.0;541.0;-210.0;1043.0;-49.0;-220.0;-6.0;526.0;231.0;-92.0;-61.0;-150.0;2.0;65.0;391.0;-1417.0;-18.0;24.0;-8.0;-302.0;127.0;-1881.0;52.0;169.0;-7.0;-1066.0;37.0;-1513.0;74.0;113.0;18.0;-479.0;325.0;-488.0;40.0;64.0;18.0;76.0;53.0;128.0;20.0;2.0;-11.0;287.0;-163.0;484.0;10.0;-4.0;-11.0;273.0;-237.0;508.0;13.0;7.0;-14.0;-42.0;35.0;443.0;-5.0;-46.0;4.0;396.0;63.0;408.0;-6.0;5.0;1.0;-2.0;-36.0;186.0;0.0;-41.0;4.0;22.0;3.0;89.0;-6.0;13.0;5.0;-171.0;50.0;-3.0LEFT2;-54.0;-94.0;-10.0;73.0;127.0;-1192.0;26.0;51.0;10.0;-409.0;93.0;-1550.0;59.0;52.0;5.0;-560.0;228.0;-1044.0;43.0;60.0;4.0;-212.0;97.0;-428.0;36.0;38.0;8.0;89.0;70.0;-79.0;19.0;44.0;9.0;219.0;-238.0;251.0;25.0;39.0;4.0;-83.0;-237.0;590.0;11.0;-4.0;-8.0;-106.0;-156.0;795.0;-23.0;-57.0;-16.0;401.0;-5.0;752.0;-28.0;-59.0;-15.0;277.0;-72.0;198.0;-28.0;-56.0;-4.0;281.0;56.0;-276.0;6.0;9.0;4.0;-362.0;131.0;-582.0;17.0;12.0;6.0;-181.0;253.0;-383.0;12.0;36.0;1.0;-216.0;72.0;-169.0;5.0;12.0;0.0;88.0;-9.0;-15.0;0.0;13.0;-2.0;-15.0;-74.0;54.0LEFT2;8.0;45.0;14.0;-8.0;-393.0;830.0;-37.0;-47.0;-38.0;175.0;-285.0;1184.0;-70.0;-205.0;11.0;233.0;179.0;719.0;-35.0;-152.0;-8.0;262.0;239.0;-654.0;-1.0;-82.0;-7.0;105.0;154.0;-1596.0;27.0;90.0;-13.0;-110.0;174.0;-1465.0;26.0;125.0;2.0;-562.0;51.0;-971.0;72.0;121.0;28.0;-451.0;352.0;-173.0;36.0;22.0;-10.0;-26.0;-101.0;199.0;14.0;7.0;1.0;329.0;248.0;552.0;-25.0;-37.0;-6.0;173.0;-327.0;351.0;-4.0;-4.0;7.0;86.0;10.0;184.0;-4.0;-25.0;3.0;-16.0;-127.0;168.0;-2.0;4.0;1.0;49.0;43.0;148.0;3.0;-6.0;-3.0;-40.0;-63.0;114.0;-2.0;-8.0;-4.0;23.0;-30.0;43.0LEFT2;6.0;30.0;-20.0;-137.0;-392.0;840.0;-9.0;6.0;-34.0;-54.0;-54.0;1240.0;-53.0;-263.0;1.0;-260.0;272.0;614.0;-30.0;-120.0;17.0;199.0;361.0;-678.0;-23.0;-120.0;12.0;-52.0;252.0;-1554.0;19.0;135.0;-15.0;-303.0;142.0;-1731.0;26.0;119.0;9.0;-645.0;303.0;-972.0;48.0;109.0;19.0;-86.0;210.0;-158.0;33.0;29.0;13.0;351.0;-131.0;454.0;4.0;-8.0;-14.0;551.0;-315.0;656.0;-3.0;-12.0;-9.0;109.0;-323.0;349.0;2.0;-26.0;-11.0;-102.0;-35.0;211.0;4.0;-33.0;6.0;24.0;54.0;115.0;-6.0;4.0;-7.0;-32.0;37.0;109.0;-5.0;-1.0;5.0;-8.0;17.0;70.0;0.0;3.0;-3.0;-82.0;-38.0;56.0LEFT2;8.0;19.0;-2.0;346.0;-367.0;1274.0;-11.0;-112.0;-62.0;275.0;-147.0;1212.0;-69.0;-254.0;20.0;906.0;149.0;27.0;-59.0;-129.0;-19.0;-214.0;351.0;-1536.0;-16.0;8.0;-11.0;-239.0;228.0;-2135.0;57.0;141.0;7.0;-574.0;602.0;-1558.0;58.0;108.0;24.0;-218.0;201.0;-393.0;29.0;82.0;44.0;-37.0;68.0;339.0;19.0;-15.0;-20.0;257.0;-462.0;494.0;-3.0;9.0;-16.0;118.0;-254.0;337.0;15.0;-29.0;-15.0;29.0;-37.0;281.0;5.0;5.0;3.0;119.0;68.0;327.0;2.0;-17.0;8.0;8.0;52.0;255.0;-4.0;-19.0;-3.0;96.0;-53.0;112.0;0.0;6.0;-3.0;-121.0;49.0;91.0;-6.0;-2.0;6.0;-88.0;39.0;83.0LEFT2;-6.0;73.0;-3.0;18.0;-404.0;1112.0;-20.0;-79.0;-45.0;121.0;-306.0;1179.0;-48.0;-207.0;-7.0;197.0;138.0;297.0;-35.0;-192.0;7.0;377.0;468.0;-1071.0;-26.0;-7.0;17.0;14.0;300.0;-1893.0;32.0;117.0;-6.0;-664.0;156.0;-1706.0;39.0;117.0;4.0;-545.0;276.0;-832.0;42.0;90.0;22.0;-352.0;288.0;32.0;19.0;17.0;10.0;475.0;-55.0;423.0;9.0;28.0;-18.0;84.0;-366.0;473.0;13.0;-30.0;-12.0;186.0;-168.0;413.0;0.0;-24.0;-5.0;-15.0;-56.0;382.0;0.0;-30.0;9.0;130.0;78.0;290.0;-7.0;-5.0;3.0;-59.0;-19.0;153.0;-2.0;-9.0;-1.0;19.0;20.0;74.0;-3.0;-2.0;-3.0;-29.0;-22.0;26.0LEFT2;-60.0;-178.0;8.0;577.0;217.0;143.0;-41.0;-152.0;0.0;-39.0;328.0;-1139.0;-6.0;0.0;-6.0;-184.0;274.0;-1786.0;41.0;123.0;-17.0;-890.0;148.0;-1556.0;51.0;112.0;12.0;-429.0;171.0;-715.0;48.0;106.0;12.0;-343.0;189.0;27.0;30.0;28.0;8.0;432.0;-15.0;639.0;-7.0;13.0;-16.0;425.0;-165.0;737.0;-7.0;-59.0;3.0;252.0;-234.0;505.0;-12.0;-44.0;-1.0;65.0;-86.0;222.0;-2.0;-24.0;7.0;-95.0;-15.0;71.0;2.0;-4.0;-4.0;-31.0;25.0;11.0;-1.0;2.0;-3.0;-63.0;36.0;-7.0;-1.0;2.0;-1.0;-66.0;-1.0;-17.0;-3.0;2.0;-2.0;16.0;-9.0;-4.0;-3.0;6.0;-3.0;17.0;-26.0;27.0LEFT2;-3.0;23.0;-7.0;-99.0;-519.0;439.0;11.0;48.0;-14.0;344.0;-297.0;1002.0;-16.0;-112.0;-29.0;700.0;-233.0;1065.0;-58.0;-117.0;14.0;496.0;547.0;466.0;-52.0;-181.0;18.0;-308.0;228.0;-1092.0;-14.0;-25.0;-17.0;-331.0;256.0;-1979.0;54.0;126.0;-7.0;-1035.0;151.0;-1764.0;49.0;122.0;-10.0;-432.0;285.0;-633.0;41.0;107.0;41.0;83.0;377.0;461.0;15.0;1.0;2.0;721.0;-210.0;693.0;1.0;6.0;0.0;570.0;-257.0;724.0;-7.0;-25.0;-16.0;-148.0;-351.0;262.0;1.0;-40.0;3.0;8.0;-14.0;231.0;0.0;-6.0;2.0;-159.0;-9.0;48.0;4.0;-28.0;-2.0;46.0;-34.0;40.0;-6.0;5.0;-11.0;-78.0;24.0;-8.0LEFT2;-81.0;-153.0;21.0;394.0;299.0;-77.0;-56.0;-129.0;10.0;-182.0;134.0;-1316.0;8.0;28.0;-4.0;-369.0;152.0;-1883.0;55.0;84.0;-12.0;-844.0;204.0;-1476.0;53.0;99.0;-2.0;-136.0;228.0;-601.0;39.0;62.0;13.0;-3.0;162.0;48.0;18.0;30.0;4.0;384.0;-87.0;464.0;1.0;8.0;0.0;361.0;-167.0;591.0;-6.0;-15.0;-7.0;7.0;-195.0;496.0;-2.0;-21.0;-5.0;172.0;-36.0;376.0;-1.0;-17.0;4.0;-188.0;-25.0;162.0;1.0;-25.0;5.0;108.0;13.0;85.0;-6.0;6.0;3.0;-118.0;-44.0;-7.0;-2.0;-8.0;-8.0;86.0;-15.0;43.0;-2.0;25.0;-6.0;-21.0;44.0;48.0;5.0;-10.0;1.0;28.0;27.0;52.0LEFT2;-66.0;-194.0;29.0;120.0;176.0;-886.0;-44.0;-56.0;-22.0;-166.0;-9.0;-2005.0;31.0;93.0;-18.0;-1049.0;-48.0;-2020.0;73.0;160.0;13.0;-859.0;366.0;-935.0;56.0;64.0;30.0;72.0;62.0;180.0;26.0;37.0;5.0;553.0;-74.0;638.0;14.0;-27.0;-37.0;431.0;-306.0;604.0;10.0;-13.0;-14.0;-87.0;39.0;389.0;-1.0;-51.0;3.0;0.0;125.0;222.0;-21.0;-6.0;5.0;91.0;14.0;154.0;-7.0;-6.0;5.0;-11.0;37.0;65.0;-3.0;-1.0;4.0;-36.0;-12.0;42.0;-6.0;0.0;3.0;-21.0;-27.0;24.0;-4.0;0.0;0.0;26.0;-48.0;45.0;-5.0;-7.0;-7.0;33.0;-85.0;-7.0;2.0;-3.0;0.0;56.0;3.0;11.0LEFT2;7.0;40.0;-10.0;-15.0;-333.0;1113.0;-14.0;-26.0;-23.0;-32.0;-193.0;1245.0;-78.0;-225.0;-22.0;92.0;99.0;543.0;-55.0;-176.0;7.0;223.0;201.0;-910.0;-29.0;-81.0;-11.0;-148.0;377.0;-1901.0;29.0;64.0;3.0;-104.0;289.0;-1948.0;51.0;159.0;15.0;-232.0;187.0;-1069.0;51.0;97.0;27.0;-39.0;33.0;113.0;41.0;66.0;17.0;215.0;-114.0;689.0;17.0;-15.0;-17.0;64.0;-281.0;804.0;6.0;-33.0;-22.0;169.0;-155.0;457.0;5.0;-32.0;-15.0;-159.0;-32.0;135.0;-8.0;-15.0;2.0;-7.0;98.0;26.0;-3.0;-4.0;16.0;-120.0;-21.0;-35.0;-3.0;-10.0;2.0;84.0;90.0;60.0;-2.0;-2.0;4.0;-31.0;85.0;79.0LEFT2;-4.0;100.0;-2.0;227.0;-146.0;1217.0;-12.0;16.0;-1.0;259.0;-70.0;1633.0;-118.0;-277.0;-7.0;596.0;-251.0;846.0;-52.0;-197.0;-4.0;35.0;231.0;-1150.0;-25.0;-73.0;-31.0;-259.0;-13.0;-2216.0;96.0;173.0;18.0;-601.0;346.0;-1921.0;71.0;185.0;15.0;-455.0;230.0;-396.0;55.0;67.0;17.0;349.0;-16.0;676.0;15.0;40.0;-18.0;9.0;-29.0;905.0;-2.0;-76.0;-12.0;282.0;-166.0;562.0;-17.0;-33.0;-9.0;-203.0;101.0;192.0;-23.0;-80.0;15.0;400.0;14.0;75.0;-27.0;-93.0;49.0;-111.0;-579.0;-273.0;9.0;47.0;-7.0;-37.0;-54.0;125.0;39.0;32.0;-32.0;-224.0;-127.0;17.0;36.0;87.0;-61.0;200.0;550.0;303.0LEFT2;-64.0;-7.0;211.0;-345.0;-480.0;-241.0;-21.0;-50.0;133.0;-501.0;-2019.0;-868.0;34.0;32.0;-55.0;-742.0;-2041.0;-936.0;55.0;19.0;-171.0;-162.0;-962.0;-590.0;61.0;34.0;-133.0;385.0;273.0;-35.0;35.0;-8.0;-48.0;289.0;582.0;291.0;15.0;-8.0;18.0;391.0;624.0;398.0;-7.0;-2.0;45.0;-138.0;328.0;268.0;-3.0;5.0;29.0;57.0;240.0;144.0;-10.0;-12.0;14.0;-173.0;126.0;88.0;-3.0;-10.0;12.0;-175.0;60.0;-18.0;-6.0;-8.0;6.0;60.0;19.0;-42.0;-2.0;-3.0;7.0;134.0;-77.0;-37.0;-2.0;7.0;-3.0;183.0;-65.0;-4.0;2.0;-1.0;2.0;51.0;-22.0;-51.0;1.0;3.0;-4.0;-43.0;40.0;-11.0LEFT2;-56.0;-20.0;160.0;-449.0;-147.0;-113.0;-30.0;-39.0;134.0;-503.0;-1541.0;-697.0;-13.0;-10.0;-16.0;-396.0;-2145.0;-972.0;42.0;-17.0;-98.0;-254.0;-1338.0;-890.0;48.0;35.0;-122.0;147.0;-387.0;-333.0;30.0;50.0;-86.0;429.0;148.0;241.0;27.0;24.0;-17.0;181.0;715.0;726.0;6.0;-17.0;30.0;59.0;685.0;551.0;15.0;-35.0;53.0;-202.0;547.0;310.0;-1.0;-4.0;15.0;47.0;159.0;-41.0;-2.0;7.0;15.0;-138.0;68.0;-51.0;-1.0;-16.0;3.0;-102.0;28.0;-31.0;-2.0;-11.0;5.0;138.0;-38.0;18.0;8.0;-11.0;4.0;273.0;-132.0;-6.0;12.0;4.0;3.0;98.0;-62.0;-75.0;6.0;3.0;-3.0;-166.0;4.0;-33.0LEFT2;-80.0;-51.0;187.0;-321.0;-636.0;-331.0;-20.0;-41.0;124.0;-691.0;-2199.0;-903.0;-1.0;30.0;-12.0;-1105.0;-2525.0;-1085.0;59.0;66.0;-140.0;-397.0;-1432.0;-539.0;40.0;23.0;-133.0;155.0;-115.0;24.0;53.0;13.0;-76.0;244.0;721.0;379.0;45.0;-41.0;1.0;601.0;1241.0;397.0;12.0;-5.0;43.0;75.0;941.0;280.0;-3.0;-12.0;61.0;157.0;453.0;175.0;-18.0;6.0;33.0;-69.0;-27.0;78.0;-10.0;-8.0;11.0;157.0;-120.0;26.0;-6.0;-5.0;-6.0;83.0;-117.0;10.0;-7.0;-10.0;-14.0;173.0;-128.0;-75.0;13.0;0.0;-13.0;144.0;-52.0;31.0;11.0;13.0;-7.0;-202.0;67.0;13.0;12.0;2.0;4.0;-240.0;154.0;33.0LEFT2;-7.0;4.0;-51.0;555.0;1415.0;618.0;-54.0;-6.0;62.0;485.0;1749.0;562.0;-149.0;-90.0;196.0;401.0;-313.0;-19.0;-59.0;-37.0;159.0;-1011.0;-1927.0;-537.0;8.0;-11.0;-6.0;-1013.0;-2934.0;-986.0;122.0;32.0;-143.0;-960.0;-1519.0;-816.0;82.0;50.0;-144.0;263.0;-161.0;-418.0;64.0;5.0;-61.0;194.0;899.0;192.0;25.0;-9.0;18.0;795.0;1043.0;373.0;-6.0;-18.0;32.0;274.0;563.0;260.0;-11.0;-6.0;23.0;373.0;193.0;112.0;0.0;4.0;13.0;25.0;125.0;80.0;-6.0;1.0;11.0;6.0;116.0;112.0;-5.0;0.0;1.0;-5.0;55.0;116.0;0.0;-4.0;-5.0;-177.0;-3.0;66.0;-2.0;-1.0;-13.0;-18.0;-4.0;-38.0LEFT2;-69.0;-32.0;193.0;-679.0;-1798.0;-506.0;-20.0;-22.0;61.0;-935.0;-2708.0;-835.0;65.0;31.0;-57.0;-868.0;-2532.0;-696.0;62.0;43.0;-158.0;-88.0;-441.0;-307.0;63.0;33.0;-88.0;428.0;470.0;169.0;41.0;-21.0;-42.0;481.0;1050.0;461.0;23.0;-41.0;21.0;148.0;1028.0;355.0;-5.0;-19.0;47.0;12.0;561.0;87.0;-9.0;-3.0;41.0;366.0;139.0;21.0;-9.0;14.0;12.0;177.0;-14.0;-54.0;0.0;1.0;0.0;33.0;-4.0;14.0;1.0;3.0;-1.0;-164.0;68.0;36.0;-3.0;-5.0;-2.0;-178.0;16.0;59.0;-4.0;-5.0;2.0;38.0;3.0;8.0;-2.0;2.0;-2.0;26.0;-22.0;-7.0;4.0;1.0;0.0;21.0;-11.0;1.0LEFT2;-54.0;-23.0;124.0;-324.0;-282.0;-65.0;-31.0;-73.0;121.0;-369.0;-1597.0;-591.0;-5.0;12.0;9.0;-563.0;-2147.0;-924.0;39.0;5.0;-75.0;-372.0;-1714.0;-712.0;58.0;76.0;-132.0;160.0;-391.0;-211.0;53.0;3.0;-84.0;-149.0;415.0;243.0;25.0;-5.0;-18.0;267.0;1031.0;317.0;-8.0;-24.0;37.0;149.0;717.0;213.0;-9.0;-4.0;41.0;456.0;362.0;66.0;-9.0;8.0;18.0;-147.0;83.0;113.0;-4.0;-5.0;18.0;-14.0;72.0;61.0;1.0;-7.0;-2.0;364.0;77.0;82.0;-1.0;0.0;-10.0;53.0;40.0;19.0;-1.0;-2.0;-11.0;-83.0;3.0;36.0;-2.0;8.0;0.0;-316.0;21.0;2.0;2.0;-2.0;8.0;153.0;14.0;10.0LEFT2;-24.0;-4.0;-22.0;367.0;1491.0;519.0;-62.0;-39.0;89.0;59.0;1118.0;340.0;-59.0;-69.0;173.0;-111.0;-900.0;-303.0;-22.0;-11.0;98.0;-685.0;-2034.0;-713.0;27.0;30.0;-27.0;-898.0;-2328.0;-877.0;58.0;31.0;-101.0;-316.0;-906.0;-494.0;37.0;32.0;-96.0;194.0;-76.0;-69.0;36.0;2.0;-49.0;451.0;636.0;375.0;21.0;-8.0;-11.0;215.0;725.0;336.0;8.0;-18.0;26.0;126.0;562.0;220.0;-6.0;-4.0;33.0;-45.0;315.0;70.0;-7.0;-1.0;24.0;149.0;141.0;52.0;-4.0;4.0;5.0;-39.0;77.0;48.0;-1.0;-9.0;3.0;124.0;14.0;48.0;-1.0;0.0;-5.0;-49.0;-18.0;26.0;1.0;-15.0;-3.0;63.0;2.0;34.0LEFT2;-53.0;-53.0;162.0;-730.0;-2185.0;-626.0;14.0;0.0;-10.0;-992.0;-2939.0;-1028.0;90.0;-41.0;-106.0;-394.0;-1715.0;-884.0;58.0;46.0;-135.0;257.0;254.0;-403.0;33.0;38.0;-46.0;634.0;778.0;214.0;12.0;29.0;-8.0;684.0;716.0;601.0;12.0;-5.0;17.0;59.0;251.0;413.0;4.0;-28.0;24.0;-215.0;257.0;213.0;-3.0;-6.0;25.0;-337.0;286.0;31.0;-7.0;-12.0;16.0;-157.0;127.0;9.0;-6.0;4.0;6.0;116.0;20.0;-18.0;-1.0;-6.0;-8.0;155.0;-55.0;23.0;2.0;-1.0;-5.0;67.0;9.0;33.0;2.0;-6.0;-3.0;-2.0;18.0;13.0;1.0;-3.0;1.0;12.0;15.0;-20.0;-2.0;3.0;2.0;-21.0;41.0;-35.0LEFT2;-14.0;-4.0;-23.0;496.0;1585.0;623.0;-39.0;-40.0;104.0;8.0;1689.0;455.0;-104.0;-78.0;187.0;-9.0;-775.0;-446.0;-25.0;-21.0;103.0;-910.0;-2198.0;-857.0;13.0;5.0;-45.0;-769.0;-2811.0;-1100.0;111.0;49.0;-99.0;-67.0;-997.0;-580.0;37.0;38.0;-100.0;427.0;-21.0;-7.0;35.0;10.0;-33.0;270.0;582.0;451.0;12.0;-25.0;-12.0;53.0;614.0;391.0;6.0;-9.0;14.0;13.0;563.0;180.0;-1.0;-5.0;21.0;108.0;441.0;124.0;-3.0;7.0;14.0;82.0;241.0;96.0;-4.0;-2.0;14.0;-109.0;84.0;85.0;-2.0;-7.0;5.0;107.0;43.0;8.0;1.0;1.0;-4.0;-22.0;-1.0;-5.0;0.0;-3.0;-1.0;-10.0;27.0;-34.0LEFT2;-57.0;-31.0;137.0;217.0;-273.0;-274.0;-37.0;-25.0;122.0;-613.0;-1761.0;-725.0;4.0;18.0;-16.0;-763.0;-2530.0;-759.0;46.0;5.0;-88.0;-601.0;-1640.0;-464.0;52.0;14.0;-132.0;421.0;-282.0;-221.0;34.0;31.0;-75.0;-171.0;782.0;244.0;27.0;-5.0;-19.0;303.0;949.0;250.0;5.0;3.0;36.0;-232.0;706.0;236.0;-1.0;-19.0;39.0;401.0;316.0;37.0;-7.0;5.0;19.0;43.0;110.0;10.0;-5.0;-1.0;8.0;61.0;71.0;54.0;-1.0;-1.0;6.0;-45.0;30.0;24.0;-2.0;-1.0;-1.0;15.0;-2.0;56.0;-1.0;-4.0;0.0;-9.0;-32.0;-8.0;0.0;-2.0;-7.0;1.0;-7.0;18.0;2.0;-4.0;0.0;-28.0;33.0;-30.0LEFT2;-36.0;9.0;-35.0;234.0;1586.0;482.0;-59.0;-7.0;127.0;55.0;1519.0;368.0;-71.0;-25.0;197.0;-441.0;-766.0;-148.0;-5.0;-66.0;131.0;-610.0;-2275.0;-669.0;14.0;16.0;-36.0;-900.0;-2799.0;-857.0;78.0;-9.0;-121.0;-270.0;-1211.0;-513.0;42.0;71.0;-120.0;306.0;39.0;-121.0;40.0;-14.0;-57.0;289.0;720.0;329.0;16.0;-10.0;3.0;412.0;789.0;312.0;-3.0;-17.0;35.0;117.0;549.0;185.0;-4.0;-1.0;37.0;312.0;334.0;79.0;-8.0;12.0;10.0;-159.0;144.0;71.0;-4.0;-15.0;9.0;-71.0;94.0;79.0;2.0;-2.0;0.0;307.0;14.0;-34.0;-2.0;7.0;-10.0;24.0;31.0;44.0;-1.0;4.0;-10.0;10.0;35.0;15.0LEFT2;-57.0;-27.0;163.0;-314.0;-1066.0;-378.0;-10.0;-24.0;84.0;-610.0;-2168.0;-702.0;7.0;41.0;-23.0;-809.0;-2539.0;-713.0;56.0;21.0;-133.0;-55.0;-1022.0;-318.0;24.0;39.0;-119.0;119.0;0.0;16.0;33.0;3.0;-72.0;136.0;976.0;338.0;17.0;-22.0;-12.0;26.0;1139.0;266.0;12.0;-6.0;45.0;8.0;898.0;159.0;-4.0;-14.0;57.0;92.0;326.0;97.0;-5.0;2.0;39.0;140.0;-8.0;16.0;-3.0;-7.0;5.0;133.0;-105.0;-10.0;1.0;-3.0;-3.0;21.0;-18.0;-29.0;1.0;-1.0;-10.0;80.0;-20.0;-18.0;1.0;3.0;-4.0;-52.0;22.0;10.0;1.0;1.0;-2.0;-35.0;16.0;7.0;-2.0;1.0;4.0;-81.0;18.0;5.0LEFT2;-16.0;5.0;-48.0;432.0;1568.0;513.0;-37.0;-35.0;105.0;99.0;1900.0;612.0;-89.0;-31.0;146.0;371.0;-65.0;15.0;-38.0;-8.0;161.0;-651.0;-2143.0;-497.0;-11.0;-1.0;-22.0;-718.0;-3106.0;-768.0;88.0;8.0;-87.0;-719.0;-2133.0;-667.0;59.0;0.0;-149.0;4.0;-436.0;-352.0;51.0;32.0;-97.0;82.0;679.0;111.0;32.0;-13.0;-19.0;326.0;1291.0;247.0;8.0;-1.0;26.0;184.0;1140.0;287.0;3.0;-18.0;65.0;183.0;601.0;57.0;-14.0;-1.0;42.0;54.0;134.0;-21.0;-10.0;15.0;14.0;35.0;-95.0;50.0;-4.0;-7.0;1.0;63.0;-111.0;48.0;2.0;4.0;-7.0;27.0;-72.0;46.0;1.0;-11.0;-1.0;-16.0;-37.0;7.0LEFT2;-83.0;-89.0;151.0;-96.0;-553.0;-294.0;-22.0;-53.0;118.0;-609.0;-2049.0;-681.0;-5.0;3.0;-34.0;-444.0;-2753.0;-952.0;73.0;65.0;-84.0;-228.0;-1620.0;-463.0;50.0;41.0;-120.0;-14.0;-267.0;-181.0;51.0;11.0;-74.0;164.0;687.0;231.0;19.0;-5.0;-22.0;268.0;1070.0;299.0;-10.0;6.0;23.0;40.0;847.0;340.0;2.0;-10.0;45.0;66.0;484.0;181.0;-4.0;-19.0;35.0;-126.0;103.0;85.0;-4.0;-4.0;13.0;124.0;-20.0;2.0;-2.0;-5.0;-4.0;44.0;-4.0;-10.0;-2.0;3.0;-2.0;115.0;16.0;6.0;2.0;1.0;-4.0;-108.0;3.0;21.0;-1.0;-4.0;1.0;66.0;15.0;0.0;1.0;2.0;-3.0;-9.0;13.0;-2.0LEFT2;-54.0;-46.0;159.0;-57.0;-419.0;-234.0;-23.0;-36.0;87.0;-493.0;-1968.0;-657.0;24.0;20.0;-6.0;-599.0;-2329.0;-774.0;53.0;43.0;-117.0;-408.0;-1651.0;-444.0;59.0;41.0;-123.0;-32.0;-61.0;-40.0;30.0;-14.0;-69.0;42.0;706.0;218.0;13.0;-9.0;-9.0;199.0;1014.0;252.0;-1.0;-17.0;44.0;-62.0;609.0;113.0;0.0;6.0;40.0;286.0;297.0;61.0;-7.0;-12.0;20.0;72.0;57.0;26.0;-6.0;0.0;6.0;350.0;-10.0;-11.0;0.0;8.0;-11.0;-106.0;40.0;7.0;-2.0;3.0;-6.0;27.0;70.0;46.0;-1.0;7.0;-6.0;-171.0;82.0;75.0;-1.0;-8.0;6.0;-29.0;54.0;39.0;1.0;3.0;5.0;50.0;31.0;21.0LEFT2;-64.0;-15.0;150.0;-549.0;-395.0;-304.0;-20.0;-64.0;119.0;-282.0;-2019.0;-718.0;10.0;37.0;-22.0;-1268.0;-2568.0;-816.0;57.0;-14.0;-123.0;-105.0;-1560.0;-469.0;35.0;65.0;-128.0;-73.0;-142.0;-173.0;48.0;4.0;-63.0;-23.0;611.0;190.0;33.0;3.0;-13.0;43.0;894.0;252.0;12.0;-17.0;29.0;132.0;815.0;247.0;-7.0;-21.0;46.0;342.0;528.0;97.0;-19.0;3.0;34.0;106.0;148.0;58.0;-9.0;-2.0;12.0;45.0;-3.0;-3.0;-6.0;-5.0;4.0;-12.0;62.0;2.0;-1.0;1.0;-3.0;83.0;-1.0;15.0;1.0;0.0;1.0;27.0;15.0;32.0;3.0;0.0;-12.0;613.0;-10.0;-53.0;-3.0;15.0;-13.0;-233.0;104.0;80.0LEFT2;-63.0;-44.0;176.0;-278.0;-1810.0;-635.0;3.0;-14.0;45.0;-736.0;-2786.0;-960.0;49.0;-2.0;-79.0;-622.0;-2253.0;-780.0;73.0;62.0;-183.0;53.0;-64.0;-183.0;43.0;28.0;-71.0;125.0;832.0;270.0;26.0;-5.0;3.0;182.0;836.0;335.0;6.0;-37.0;37.0;165.0;575.0;171.0;-1.0;-8.0;21.0;106.0;388.0;87.0;-5.0;3.0;22.0;46.0;259.0;68.0;-6.0;-2.0;9.0;20.0;125.0;56.0;-6.0;-5.0;13.0;23.0;5.0;-20.0;-7.0;-3.0;3.0;114.0;-48.0;-18.0;-1.0;9.0;-2.0;58.0;-42.0;8.0;0.0;3.0;-4.0;-23.0;33.0;41.0;6.0;0.0;-2.0;-24.0;51.0;32.0;0.0;-7.0;2.0;-98.0;36.0;14.0LEFT2;-56.0;-68.0;185.0;-405.0;-825.0;-352.0;5.0;-45.0;82.0;-652.0;-2378.0;-900.0;6.0;23.0;-45.0;-857.0;-2473.0;-1016.0;63.0;45.0;-147.0;383.0;-1005.0;-418.0;31.0;56.0;-106.0;142.0;345.0;205.0;45.0;-11.0;-33.0;284.0;850.0;470.0;13.0;-20.0;9.0;-182.0;782.0;354.0;3.0;-18.0;38.0;-56.0;539.0;123.0;-9.0;-15.0;29.0;36.0;233.0;-29.0;-5.0;-2.0;17.0;142.0;48.0;-54.0;-6.0;-3.0;4.0;118.0;-25.0;-69.0;-4.0;9.0;0.0;220.0;-105.0;14.0;0.0;9.0;-3.0;-52.0;-7.0;49.0;1.0;9.0;2.0;-2.0;89.0;46.0;0.0;-4.0;-13.0;-113.0;149.0;28.0;-3.0;-6.0;1.0;-16.0;35.0;16.0LEFT2;-38.0;-28.0;165.0;-136.0;-1093.0;-451.0;-7.0;-5.0;59.0;-808.0;-2281.0;-619.0;28.0;10.0;-36.0;-764.0;-2089.0;-604.0;51.0;2.0;-115.0;-274.0;-853.0;-329.0;29.0;24.0;-80.0;161.0;151.0;-105.0;38.0;7.0;-45.0;424.0;666.0;189.0;7.0;1.0;-18.0;148.0;815.0;271.0;7.0;-6.0;28.0;166.0;651.0;238.0;-3.0;-9.0;43.0;27.0;360.0;123.0;-7.0;2.0;25.0;162.0;20.0;57.0;-5.0;-5.0;-1.0;-72.0;-47.0;-3.0;-3.0;-6.0;-11.0;135.0;2.0;-27.0;3.0;3.0;-5.0;-88.0;51.0;2.0;2.0;0.0;4.0;-35.0;23.0;4.0;0.0;1.0;2.0;-137.0;-10.0;2.0;-3.0;-1.0;0.0;48.0;0.0;-20.0LEFT2;-46.0;-63.0;190.0;-569.0;-1725.0;-645.0;5.0;20.0;60.0;-681.0;-2844.0;-905.0;35.0;-6.0;-82.0;-329.0;-2243.0;-651.0;58.0;63.0;-176.0;-34.0;-369.0;-203.0;34.0;7.0;-106.0;67.0;702.0;192.0;32.0;17.0;-29.0;233.0;1125.0;331.0;13.0;-14.0;30.0;105.0;897.0;306.0;1.0;-6.0;56.0;24.0;540.0;185.0;-1.0;-8.0;43.0;-122.0;134.0;93.0;-11.0;-12.0;23.0;126.0;-15.0;26.0;-4.0;-8.0;1.0;179.0;-90.0;-4.0;-1.0;-4.0;-7.0;95.0;-35.0;-21.0;2.0;0.0;-8.0;10.0;-21.0;-27.0;2.0;3.0;0.0;-57.0;35.0;-9.0;-1.0;7.0;1.0;8.0;9.0;10.0;1.0;0.0;3.0;-41.0;22.0;27.0LEFT2;-46.0;-103.0;61.0;-263.0;-201.0;-576.0;-28.0;-72.0;33.0;-26.0;-870.0;-1430.0;0.0;19.0;-2.0;-92.0;-980.0;-1540.0;29.0;87.0;-50.0;-450.0;-559.0;-988.0;45.0;97.0;-63.0;10.0;-41.0;-297.0;56.0;76.0;-53.0;-161.0;405.0;494.0;18.0;2.0;-8.0;461.0;410.0;733.0;0.0;-22.0;28.0;112.0;360.0;716.0;-20.0;-50.0;34.0;240.0;5.0;276.0;-6.0;-17.0;16.0;-191.0;-17.0;25.0;-1.0;-12.0;2.0;-29.0;-38.0;-46.0;5.0;3.0;-2.0;1.0;115.0;-20.0;1.0;4.0;-3.0;-24.0;19.0;34.0;-3.0;2.0;1.0;-31.0;20.0;34.0;0.0;-1.0;-2.0;62.0;-40.0;18.0;-1.0;1.0;1.0;13.0;2.0;18.0LEFT2;5.0;58.0;-45.0;-151.0;512.0;920.0;-48.0;-8.0;13.0;141.0;711.0;1239.0;-83.0;-70.0;60.0;-126.0;358.0;1163.0;-63.0;-152.0;84.0;528.0;-168.0;-29.0;-24.0;-128.0;55.0;16.0;-731.0;-1207.0;6.0;-58.0;-2.0;-41.0;-1009.0;-2055.0;28.0;102.0;-34.0;-685.0;-867.0;-1771.0;75.0;144.0;-85.0;-273.0;-498.0;-839.0;68.0;109.0;-55.0;-158.0;348.0;278.0;57.0;7.0;-26.0;343.0;406.0;801.0;1.0;-36.0;14.0;85.0;594.0;767.0;-6.0;-60.0;32.0;295.0;136.0;302.0;-18.0;-10.0;19.0;-118.0;119.0;51.0;-4.0;-11.0;14.0;-57.0;-43.0;-40.0;-2.0;8.0;-2.0;-24.0;79.0;55.0;3.0;-2.0;-2.0;18.0;36.0;82.0LEFT2;-2.0;43.0;-19.0;176.0;492.0;1227.0;-55.0;-4.0;-14.0;-13.0;779.0;1521.0;-96.0;-222.0;101.0;838.0;450.0;544.0;-92.0;-146.0;83.0;163.0;-817.0;-1201.0;-1.0;-83.0;46.0;-256.0;-1257.0;-2155.0;70.0;152.0;-81.0;-956.0;-1087.0;-1938.0;101.0;125.0;-68.0;-422.0;-74.0;-767.0;64.0;81.0;-34.0;42.0;233.0;152.0;16.0;2.0;-7.0;367.0;261.0;635.0;-2.0;-12.0;1.0;-74.0;358.0;710.0;3.0;-40.0;16.0;164.0;334.0;487.0;5.0;-30.0;24.0;33.0;357.0;390.0;-6.0;-31.0;15.0;220.0;-29.0;77.0;-16.0;7.0;3.0;113.0;-49.0;26.0;-1.0;-1.0;-5.0;16.0;-108.0;-22.0;-3.0;5.0;-6.0;-86.0;-13.0;-24.0LEFT2;-18.0;26.0;-4.0;-135.0;177.0;1014.0;-8.0;21.0;-12.0;26.0;635.0;1300.0;-69.0;-141.0;56.0;-150.0;573.0;1075.0;-66.0;-123.0;51.0;577.0;77.0;-499.0;-62.0;-100.0;61.0;-6.0;-890.0;-1452.0;3.0;2.0;-11.0;-294.0;-1105.0;-1915.0;54.0;113.0;-44.0;-589.0;-865.0;-1336.0;93.0;115.0;-54.0;-398.0;-218.0;-588.0;62.0;46.0;-28.0;157.0;35.0;200.0;35.0;-1.0;-17.0;209.0;385.0;712.0;-3.0;-39.0;3.0;296.0;408.0;600.0;-3.0;-12.0;10.0;87.0;339.0;398.0;-11.0;-7.0;21.0;-155.0;159.0;86.0;-8.0;-14.0;13.0;-32.0;-7.0;60.0;-6.0;-3.0;6.0;-38.0;9.0;29.0;2.0;-5.0;-5.0;87.0;-24.0;36.0LEFT2;-52.0;-86.0;56.0;127.0;-403.0;-737.0;-20.0;-33.0;20.0;8.0;-949.0;-1483.0;20.0;30.0;-9.0;-555.0;-780.0;-1286.0;48.0;61.0;-36.0;-464.0;-597.0;-915.0;50.0;52.0;-32.0;-215.0;-157.0;-284.0;33.0;23.0;-18.0;-110.0;36.0;111.0;13.0;-10.0;-2.0;125.0;209.0;253.0;-7.0;-5.0;0.0;163.0;177.0;305.0;2.0;-3.0;5.0;154.0;191.0;222.0;2.0;-2.0;2.0;59.0;183.0;267.0;1.0;-12.0;1.0;-3.0;139.0;185.0;-9.0;-4.0;4.0;30.0;68.0;124.0;-2.0;0.0;2.0;96.0;9.0;100.0;-2.0;-2.0;5.0;35.0;29.0;95.0;3.0;-1.0;-4.0;5.0;10.0;69.0;-1.0;-10.0;1.0;-9.0;38.0;8.0LEFT2;-65.0;-82.0;39.0;-199.0;-965.0;-1453.0;11.0;-25.0;0.0;-554.0;-1359.0;-2258.0;68.0;125.0;-63.0;-1028.0;-685.0;-1387.0;71.0;64.0;-35.0;-187.0;10.0;-583.0;33.0;49.0;-16.0;291.0;179.0;242.0;25.0;19.0;-3.0;168.0;209.0;551.0;7.0;-17.0;-5.0;189.0;270.0;674.0;-5.0;-40.0;4.0;197.0;316.0;409.0;0.0;-20.0;18.0;118.0;262.0;282.0;-7.0;-12.0;12.0;31.0;-14.0;95.0;-5.0;-2.0;4.0;-11.0;3.0;114.0;-7.0;-5.0;-5.0;25.0;-30.0;49.0;-2.0;-5.0;0.0;-24.0;-6.0;-1.0;-1.0;1.0;-1.0;19.0;-23.0;-38.0;4.0;-1.0;4.0;74.0;-9.0;-32.0;1.0;11.0;-3.0;-17.0;6.0;1.0LEFT2;-52.0;-103.0;41.0;-222.0;-818.0;-1512.0;29.0;-26.0;10.0;-589.0;-1036.0;-2286.0;41.0;106.0;-40.0;-986.0;-741.0;-1478.0;79.0;101.0;-31.0;-55.0;-25.0;-509.0;38.0;52.0;-27.0;346.0;63.0;307.0;41.0;23.0;-20.0;389.0;307.0;777.0;7.0;-22.0;-6.0;110.0;303.0;645.0;1.0;-14.0;6.0;221.0;308.0;500.0;-4.0;-15.0;12.0;-41.0;176.0;229.0;-7.0;-15.0;10.0;-38.0;49.0;115.0;-3.0;-5.0;7.0;-23.0;41.0;54.0;-1.0;-10.0;-2.0;3.0;-27.0;15.0;-7.0;3.0;-5.0;7.0;-26.0;-28.0;-1.0;-3.0;-1.0;49.0;-5.0;4.0;1.0;3.0;2.0;-32.0;20.0;16.0;0.0;-4.0;4.0;20.0;16.0;18.0LEFT2;-59.0;-144.0;90.0;496.0;-254.0;-281.0;-54.0;-90.0;60.0;-603.0;-1131.0;-1624.0;37.0;-31.0;-8.0;-392.0;-1088.0;-1904.0;45.0;88.0;-56.0;-731.0;-604.0;-1433.0;65.0;75.0;-48.0;-5.0;-14.0;-496.0;34.0;76.0;-29.0;70.0;245.0;258.0;36.0;3.0;-9.0;342.0;327.0;642.0;3.0;-7.0;4.0;145.0;337.0;634.0;0.0;-40.0;20.0;128.0;199.0;400.0;-13.0;-19.0;17.0;80.0;126.0;210.0;-12.0;-11.0;7.0;44.0;-25.0;90.0;-4.0;-7.0;0.0;119.0;-50.0;66.0;-1.0;5.0;-8.0;-35.0;-19.0;45.0;1.0;-5.0;-3.0;23.0;12.0;12.0;4.0;7.0;0.0;-45.0;31.0;31.0;-1.0;-5.0;4.0;9.0;39.0;21.0LEFT2;1.0;42.0;-22.0;129.0;493.0;941.0;-40.0;33.0;-6.0;-87.0;896.0;1363.0;-129.0;-161.0;59.0;267.0;361.0;803.0;-77.0;-125.0;79.0;245.0;-345.0;-460.0;-19.0;-111.0;43.0;-243.0;-1236.0;-1819.0;61.0;65.0;-11.0;-582.0;-953.0;-1988.0;55.0;97.0;-56.0;-770.0;-773.0;-1427.0;66.0;75.0;-36.0;302.0;-72.0;-347.0;60.0;70.0;-56.0;360.0;128.0;459.0;43.0;13.0;-23.0;280.0;568.0;863.0;-3.0;-9.0;-3.0;-199.0;585.0;779.0;-20.0;-54.0;33.0;-172.0;351.0;343.0;-22.0;-23.0;26.0;53.0;93.0;40.0;-9.0;-4.0;10.0;0.0;-151.0;-61.0;8.0;-4.0;5.0;75.0;-12.0;5.0;3.0;5.0;-3.0;36.0;22.0;38.0LEFT2;-31.0;-70.0;46.0;-273.0;-1176.0;-1649.0;25.0;26.0;-14.0;-539.0;-1222.0;-1947.0;76.0;111.0;-50.0;-819.0;-728.0;-1243.0;70.0;68.0;-41.0;109.0;74.0;-219.0;49.0;50.0;-37.0;185.0;179.0;410.0;27.0;-6.0;-8.0;324.0;543.0;759.0;2.0;-9.0;3.0;42.0;472.0;648.0;-13.0;-50.0;23.0;84.0;392.0;438.0;-17.0;-18.0;18.0;139.0;136.0;189.0;-17.0;-25.0;12.0;63.0;-64.0;36.0;3.0;5.0;4.0;105.0;17.0;-8.0;-1.0;-2.0;-4.0;-16.0;-121.0;-45.0;1.0;6.0;-1.0;-15.0;13.0;18.0;-14.0;6.0;-4.0;-103.0;-99.0;48.0;11.0;-9.0;1.0;137.0;4.0;52.0;8.0;-2.0;-6.0;62.0;-7.0;-11.0LEFT2;-82.0;-130.0;82.0;376.0;-600.0;-936.0;-10.0;-57.0;32.0;-208.0;-1392.0;-1850.0;69.0;71.0;-33.0;-738.0;-892.0;-1716.0;79.0;105.0;-54.0;-817.0;-365.0;-1007.0;54.0;55.0;-25.0;130.0;278.0;-13.0;36.0;18.0;-14.0;319.0;175.0;403.0;19.0;-7.0;-12.0;247.0;265.0;562.0;6.0;-11.0;6.0;90.0;320.0;461.0;-6.0;-19.0;13.0;29.0;289.0;376.0;-18.0;-17.0;15.0;150.0;128.0;218.0;-11.0;-11.0;6.0;11.0;-73.0;44.0;-3.0;0.0;1.0;-34.0;-68.0;-27.0;4.0;1.0;-4.0;15.0;-66.0;-5.0;2.0;8.0;-8.0;-15.0;6.0;44.0;0.0;2.0;0.0;64.0;75.0;91.0;2.0;0.0;0.0;12.0;58.0;63.0LEFT2;-19.0;36.0;-8.0;81.0;1012.0;1370.0;-119.0;-113.0;58.0;305.0;428.0;847.0;-93.0;-158.0;97.0;205.0;-391.0;-339.0;-35.0;-88.0;42.0;-277.0;-1249.0;-1676.0;63.0;48.0;-25.0;-815.0;-956.0;-1813.0;65.0;82.0;-56.0;-683.0;-444.0;-1232.0;63.0;71.0;-41.0;34.0;-135.0;-363.0;47.0;35.0;-21.0;365.0;367.0;449.0;40.0;14.0;-12.0;356.0;277.0;735.0;-13.0;-35.0;13.0;87.0;506.0;656.0;-15.0;-26.0;21.0;-40.0;115.0;267.0;-23.0;-28.0;16.0;-56.0;7.0;-15.0;-4.0;-3.0;8.0;19.0;-94.0;-86.0;-3.0;-3.0;-8.0;28.0;-161.0;-116.0;7.0;11.0;-5.0;-36.0;38.0;-26.0;3.0;0.0;-3.0;16.0;41.0;43.0LEFT2;-87.0;-125.0;77.0;225.0;-224.0;-158.0;-51.0;-102.0;64.0;64.0;-1018.0;-1352.0;54.0;7.0;-21.0;-353.0;-1191.0;-1609.0;67.0;80.0;-52.0;-600.0;-695.0;-1411.0;69.0;88.0;-49.0;-210.0;-20.0;-342.0;36.0;50.0;-25.0;386.0;255.0;319.0;26.0;9.0;-6.0;208.0;378.0;688.0;-6.0;-18.0;-1.0;59.0;269.0;520.0;-5.0;-34.0;16.0;-72.0;320.0;287.0;-13.0;-11.0;8.0;60.0;65.0;97.0;0.0;-5.0;11.0;-4.0;23.0;32.0;-5.0;1.0;0.0;-5.0;-75.0;15.0;0.0;1.0;-4.0;0.0;-34.0;-6.0;-5.0;-7.0;-1.0;17.0;3.0;10.0;1.0;4.0;-2.0;38.0;-21.0;18.0;1.0;-5.0;3.0;-3.0;56.0;1.0LEFT2;4.0;84.0;-40.0;81.0;501.0;1013.0;-27.0;27.0;-12.0;-36.0;1058.0;1614.0;-128.0;-149.0;57.0;-145.0;551.0;1018.0;-93.0;-165.0;88.0;325.0;-483.0;-705.0;-21.0;-95.0;42.0;-354.0;-1437.0;-2183.0;73.0;82.0;-8.0;-290.0;-941.0;-2234.0;88.0;117.0;-53.0;-939.0;-536.0;-1136.0;60.0;57.0;-28.0;93.0;208.0;-27.0;30.0;10.0;-33.0;225.0;127.0;570.0;12.0;-25.0;-3.0;492.0;404.0;592.0;-7.0;-2.0;4.0;230.0;312.0;541.0;1.0;-19.0;22.0;-64.0;266.0;300.0;-5.0;-10.0;14.0;6.0;129.0;237.0;-8.0;-3.0;3.0;-9.0;-29.0;143.0;-10.0;-9.0;-6.0;92.0;-36.0;150.0;-4.0;-4.0;-5.0;50.0;-20.0;59.0LEFT2;-28.0;25.0;-5.0;-400.0;539.0;1387.0;-85.0;-108.0;47.0;-127.0;423.0;1332.0;-79.0;-194.0;44.0;1052.0;-100.0;-91.0;-42.0;-110.0;39.0;459.0;-674.0;-1667.0;33.0;57.0;-6.0;-508.0;-689.0;-2307.0;37.0;108.0;-12.0;-1261.0;-744.0;-1623.0;73.0;95.0;-25.0;40.0;-297.0;-356.0;52.0;31.0;-41.0;460.0;-132.0;463.0;49.0;4.0;-23.0;354.0;406.0;849.0;10.0;-22.0;-8.0;-83.0;440.0;537.0;-19.0;-22.0;25.0;-156.0;350.0;299.0;-8.0;-10.0;15.0;15.0;45.0;54.0;-16.0;-7.0;5.0;-62.0;3.0;50.0;4.0;-2.0;-4.0;149.0;-4.0;3.0;-2.0;8.0;-7.0;11.0;37.0;75.0;3.0;-4.0;-1.0;51.0;33.0;23.0LEFT2;1.0;60.0;-25.0;-59.0;465.0;947.0;-35.0;-7.0;5.0;-160.0;937.0;1325.0;-88.0;-128.0;54.0;-226.0;476.0;731.0;-72.0;-145.0;59.0;289.0;-340.0;-778.0;-21.0;-57.0;32.0;-152.0;-1199.0;-1834.0;28.0;39.0;-12.0;-320.0;-954.0;-1857.0;57.0;85.0;-30.0;-265.0;-650.0;-1025.0;61.0;85.0;-39.0;115.0;-72.0;-104.0;46.0;26.0;-35.0;204.0;104.0;476.0;33.0;13.0;-10.0;42.0;487.0;704.0;-5.0;-28.0;9.0;51.0;369.0;533.0;-6.0;-14.0;24.0;-4.0;303.0;393.0;-15.0;-16.0;10.0;8.0;82.0;151.0;-9.0;-14.0;6.0;52.0;-33.0;31.0;-6.0;-3.0;-4.0;17.0;-42.0;-66.0;3.0;2.0;-6.0;-4.0;-28.0;-18.0LEFT2;-12.0;84.0;-17.0;216.0;894.0;1993.0;-181.0;-136.0;87.0;-3.0;672.0;1341.0;-152.0;-319.0;86.0;472.0;-464.0;-673.0;-92.0;-117.0;49.0;-493.0;-1374.0;-2852.0;116.0;104.0;-69.0;244.0;-1193.0;-2417.0;193.0;318.0;-97.0;-857.0;-179.0;-671.0;151.0;59.0;-59.0;404.0;583.0;1043.0;49.0;-17.0;4.0;-486.0;833.0;1116.0;-68.0;-136.0;70.0;571.0;357.0;669.0;-55.0;-27.0;31.0;-213.0;-197.0;-280.0;10.0;12.0;2.0;176.0;-117.0;-120.0;-1.0;10.0;-17.0;-130.0;-66.0;-79.0;7.0;-7.0;0.0;129.0;99.0;-13.0;-1.0;8.0;-5.0;14.0;-118.0;-69.0;1.0;5.0;2.0;67.0;-3.0;-7.0;4.0;7.0;-6.0;-2.0;-14.0;15.0LEFT2;-13.0;75.0;-18.0;355.0;842.0;1417.0;-102.0;-28.0;57.0;-71.0;1051.0;1732.0;-126.0;-265.0;86.0;583.0;101.0;-25.0;-64.0;-113.0;35.0;-326.0;-1384.0;-1789.0;62.0;19.0;-38.0;-269.0;-1610.0;-2556.0;132.0;189.0;-72.0;-350.0;-1037.0;-1151.0;85.0;70.0;-41.0;-221.0;298.0;9.0;42.0;-1.0;0.0;155.0;726.0;840.0;-16.0;-7.0;14.0;10.0;661.0;849.0;-12.0;-29.0;23.0;202.0;227.0;354.0;-13.0;-15.0;6.0;52.0;-18.0;27.0;3.0;-9.0;11.0;-73.0;69.0;-7.0;0.0;-6.0;8.0;-38.0;13.0;2.0;-1.0;5.0;-4.0;82.0;-121.0;-28.0;-2.0;0.0;-1.0;-37.0;-40.0;-1.0;1.0;0.0;-4.0;71.0;-41.0;-33.0LEFT2;-2.0;51.0;-39.0;99.0;1004.0;1739.0;-116.0;6.0;67.0;-371.0;1334.0;1722.0;-190.0;-247.0;146.0;317.0;18.0;472.0;-62.0;-131.0;82.0;-14.0;-1410.0;-1965.0;87.0;-34.0;-53.0;-174.0;-1738.0;-2338.0;119.0;165.0;-69.0;-304.0;-765.0;-1562.0;75.0;117.0;-64.0;-143.0;101.0;-411.0;33.0;50.0;-25.0;290.0;360.0;402.0;17.0;-11.0;0.0;271.0;431.0;966.0;10.0;-15.0;10.0;44.0;448.0;694.0;-7.0;-26.0;31.0;-75.0;218.0;378.0;-16.0;-17.0;15.0;-140.0;14.0;77.0;-19.0;-19.0;14.0;29.0;-124.0;-13.0;-1.0;-3.0;-7.0;48.0;-108.0;1.0;7.0;-6.0;-2.0;35.0;-74.0;-69.0;7.0;1.0;-4.0;49.0;-15.0;-62.0LEFT2;-38.0;36.0;-16.0;-218.0;1078.0;1504.0;-111.0;-119.0;94.0;134.0;882.0;992.0;-130.0;-265.0;109.0;404.0;-524.0;-495.0;-27.0;-107.0;51.0;-351.0;-1522.0;-2112.0;78.0;99.0;-50.0;-477.0;-1497.0;-2168.0;103.0;167.0;-74.0;-354.0;-543.0;-902.0;52.0;70.0;-36.0;439.0;119.0;-43.0;33.0;-2.0;-20.0;275.0;336.0;607.0;17.0;0.0;4.0;233.0;280.0;539.0;14.0;-3.0;9.0;-125.0;384.0;528.0;-10.0;-27.0;15.0;-28.0;226.0;347.0;-19.0;-6.0;10.0;-132.0;139.0;188.0;-16.0;-24.0;9.0;61.0;0.0;55.0;-6.0;1.0;-2.0;59.0;-42.0;-1.0;1.0;-2.0;2.0;10.0;27.0;27.0;0.0;3.0;0.0;11.0;12.0;37.0