Lable;AccX1;AccY1;AccZ1;GyrX1;GyrY1;GyrZ1;AccX2;AccY2;AccZ2;GyrX2;GyrY2;GyrZ2;AccX3;AccY3;AccZ3;GyrX3;GyrY3;GyrZ3;AccX4;AccY4;AccZ4;GyrX4;GyrY4;GyrZ4;AccX5;AccY5;AccZ5;GyrX5;GyrY5;GyrZ5;AccX6;AccY6;AccZ6;GyrX6;GyrY6;GyrZ6;AccX7;AccY7;AccZ7;GyrX7;GyrY7;GyrZ7;AccX8;AccY8;AccZ8;GyrX8;GyrY8;GyrZ8;AccX9;AccY9;AccZ9;GyrX9;GyrY9;GyrZ9;AccX10;AccY10;AccZ10;GyrX10;GyrY10;GyrZ10;AccX11;AccY11;AccZ11;GyrX11;GyrY11;GyrZ11;AccX12;AccY12;AccZ12;GyrX12;GyrY12;GyrZ12;AccX13;AccY13;AccZ13;GyrX13;GyrY13;GyrZ13;AccX14;AccY14;AccZ14;GyrX14;GyrY14;GyrZ14;AccX15;AccY15;AccZ15;GyrX15;GyrY15;GyrZ15;AccX16;AccY16;AccZ16;GyrX16;GyrY16;GyrZ16QW;-15.0;151.0;-25.0;-58.0;23.0;-65.0;-11.0;121.0;7.0;-2540.0;-101.0;224.0;5.0;-11.0;29.0;-1908.0;-271.0;295.0;4.0;-34.0;22.0;-1037.0;-191.0;150.0;3.0;-36.0;6.0;-719.0;-142.0;77.0;10.0;-45.0;-1.0;-454.0;-36.0;-10.0;16.0;-70.0;-2.0;247.0;61.0;-62.0;9.0;-33.0;0.0;382.0;94.0;-43.0;1.0;-44.0;6.0;380.0;68.0;-41.0;3.0;-19.0;-3.0;273.0;64.0;9.0;-1.0;-29.0;-2.0;421.0;80.0;-11.0;2.0;-1.0;-4.0;383.0;45.0;-8.0;-4.0;-6.0;1.0;114.0;17.0;-21.0;-2.0;0.0;-1.0;50.0;-9.0;-26.0;-2.0;-1.0;0.0;100.0;-1.0;-37.0;1.0;5.0;-2.0;61.0;6.0;-15.0QW;-23.0;122.0;-13.0;120.0;21.0;-89.0;0.0;166.0;0.0;-2371.0;-32.0;227.0;11.0;-45.0;69.0;-2236.0;-266.0;169.0;10.0;-35.0;6.0;-1653.0;-86.0;270.0;-4.0;-73.0;-5.0;-1696.0;27.0;88.0;5.0;-129.0;-8.0;-226.0;-30.0;-205.0;6.0;-98.0;-4.0;1656.0;12.0;-243.0;5.0;-28.0;4.0;2035.0;-18.0;-87.0;-2.0;37.0;-2.0;778.0;22.0;78.0;-2.0;-2.0;5.0;-159.0;40.0;53.0;-1.0;-3.0;2.0;-33.0;11.0;-33.0;-1.0;-7.0;2.0;-57.0;17.0;-43.0;4.0;7.0;-1.0;-8.0;11.0;-26.0;1.0;2.0;0.0;53.0;5.0;4.0;-2.0;1.0;0.0;7.0;-11.0;0.0;0.0;2.0;-2.0;-36.0;2.0;-1.0QW;-4.0;165.0;-5.0;-2542.0;210.0;278.0;10.0;53.0;19.0;-2100.0;-293.0;388.0;3.0;-47.0;20.0;-2087.0;-226.0;322.0;3.0;-93.0;5.0;-941.0;-19.0;119.0;-2.0;-87.0;3.0;-730.0;18.0;-78.0;12.0;-82.0;-9.0;914.0;22.0;-188.0;1.0;-50.0;-3.0;1053.0;6.0;-133.0;0.0;-19.0;-3.0;1073.0;-35.0;-45.0;-2.0;-9.0;-4.0;441.0;27.0;-26.0;1.0;12.0;-6.0;195.0;28.0;-5.0;1.0;-2.0;0.0;192.0;20.0;-13.0;0.0;4.0;0.0;-57.0;37.0;5.0;2.0;3.0;3.0;88.0;5.0;-3.0;-1.0;1.0;3.0;-131.0;10.0;13.0;0.0;2.0;2.0;27.0;-14.0;-1.0;-1.0;-2.0;1.0;-45.0;-8.0;8.0QW;-17.0;156.0;-10.0;-1303.0;69.0;131.0;-11.0;50.0;76.0;-3294.0;-453.0;515.0;9.0;-14.0;9.0;-2186.0;-226.0;374.0;6.0;-68.0;-3.0;-1627.0;27.0;207.0;-9.0;-132.0;-6.0;-438.0;9.0;-84.0;1.0;-99.0;-10.0;1216.0;-17.0;-308.0;9.0;-51.0;0.0;1822.0;-51.0;-231.0;3.0;16.0;-5.0;930.0;-25.0;-30.0;2.0;10.0;-5.0;161.0;41.0;34.0;1.0;6.0;0.0;56.0;48.0;29.0;1.0;3.0;4.0;37.0;24.0;19.0;-1.0;-4.0;4.0;0.0;3.0;-6.0;1.0;3.0;1.0;-32.0;7.0;6.0;-1.0;1.0;1.0;-10.0;-2.0;-4.0;1.0;5.0;0.0;-21.0;0.0;6.0;0.0;-2.0;0.0;8.0;-2.0;6.0QW;-26.0;87.0;53.0;-3451.0;-14.0;355.0;9.0;57.0;32.0;-1583.0;-348.0;311.0;12.0;-94.0;9.0;-845.0;-186.0;167.0;-1.0;-47.0;0.0;-887.0;-79.0;114.0;7.0;-64.0;0.0;-282.0;-6.0;-74.0;11.0;-65.0;-5.0;37.0;118.0;-99.0;9.0;-42.0;1.0;687.0;107.0;-79.0;-5.0;-31.0;-7.0;177.0;26.0;-33.0;-2.0;-37.0;-9.0;732.0;-20.0;-66.0;2.0;-5.0;-10.0;486.0;10.0;-20.0;-1.0;-5.0;-3.0;521.0;5.0;-9.0;0.0;12.0;1.0;22.0;33.0;13.0;-2.0;-4.0;4.0;-8.0;-2.0;13.0;-1.0;-1.0;3.0;-21.0;-5.0;3.0;0.0;-2.0;1.0;7.0;-13.0;1.0;1.0;0.0;-1.0;-19.0;0.0;-7.0QW;-5.0;180.0;-5.0;-1712.0;132.0;140.0;-11.0;68.0;58.0;-2857.0;-274.0;261.0;7.0;-13.0;44.0;-1964.0;-307.0;343.0;5.0;-51.0;0.0;-1228.0;-37.0;194.0;-6.0;-103.0;3.0;-681.0;-43.0;-29.0;7.0;-85.0;-9.0;306.0;-11.0;-184.0;7.0;-57.0;-1.0;1030.0;10.0;-175.0;5.0;-8.0;-4.0;873.0;-2.0;-39.0;1.0;-19.0;-11.0;389.0;5.0;9.0;5.0;-7.0;-7.0;533.0;35.0;-2.0;0.0;-2.0;1.0;183.0;69.0;29.0;0.0;3.0;2.0;55.0;38.0;15.0;-2.0;0.0;5.0;-16.0;12.0;4.0;0.0;0.0;4.0;-21.0;-5.0;3.0;-1.0;-1.0;2.0;29.0;-24.0;-10.0;1.0;0.0;0.0;-6.0;-9.0;1.0QW;-15.0;199.0;-6.0;-1646.0;-61.0;263.0;-17.0;61.0;65.0;-3819.0;-601.0;570.0;25.0;-27.0;4.0;-3035.0;-492.0;436.0;24.0;-132.0;-9.0;-607.0;98.0;-12.0;2.0;-101.0;3.0;541.0;151.0;-198.0;-6.0;-75.0;12.0;1278.0;23.0;-198.0;7.0;-1.0;-6.0;1006.0;-58.0;-116.0;10.0;-23.0;-13.0;647.0;58.0;-7.0;9.0;11.0;-16.0;347.0;129.0;22.0;4.0;-1.0;-1.0;276.0;125.0;40.0;1.0;6.0;3.0;56.0;84.0;32.0;-2.0;3.0;7.0;4.0;41.0;16.0;-6.0;1.0;3.0;29.0;13.0;-1.0;-4.0;5.0;6.0;17.0;16.0;-7.0;-4.0;11.0;0.0;-98.0;-53.0;-27.0;3.0;-4.0;4.0;-1.0;-22.0;-37.0QW;-25.0;216.0;32.0;-122.0;108.0;-61.0;-27.0;149.0;68.0;-4255.0;-312.0;501.0;7.0;-73.0;33.0;-2086.0;-677.0;505.0;28.0;-144.0;-30.0;-1334.0;-93.0;55.0;24.0;-93.0;-5.0;-631.0;186.0;-142.0;5.0;-84.0;-8.0;451.0;98.0;-144.0;-4.0;-51.0;-7.0;1393.0;-126.0;-119.0;-6.0;-19.0;-9.0;1486.0;-27.0;-98.0;1.0;23.0;-7.0;665.0;89.0;-35.0;1.0;13.0;2.0;125.0;95.0;-2.0;4.0;13.0;4.0;-156.0;31.0;35.0;3.0;-8.0;7.0;-25.0;6.0;34.0;1.0;-2.0;5.0;-106.0;20.0;33.0;3.0;-5.0;4.0;41.0;15.0;22.0;-1.0;6.0;0.0;-66.0;-15.0;17.0;-1.0;0.0;0.0;60.0;-11.0;14.0QW;13.0;99.0;-18.0;1475.0;148.0;-263.0;-2.0;83.0;-9.0;1478.0;328.0;-246.0;-19.0;202.0;6.0;-1742.0;211.0;249.0;-27.0;13.0;24.0;-1885.0;-316.0;338.0;-5.0;-18.0;12.0;-1993.0;-514.0;330.0;25.0;-43.0;-22.0;-1656.0;-105.0;166.0;11.0;-100.0;-6.0;-758.0;135.0;-74.0;5.0;-62.0;-6.0;-12.0;121.0;-152.0;1.0;-73.0;0.0;1329.0;14.0;-113.0;-5.0;-22.0;-3.0;1303.0;-6.0;-42.0;-3.0;5.0;-3.0;764.0;30.0;18.0;-3.0;10.0;-3.0;185.0;13.0;-12.0;3.0;6.0;-2.0;-21.0;13.0;-8.0;-1.0;-3.0;2.0;13.0;-3.0;-16.0;-2.0;1.0;2.0;-114.0;-13.0;-7.0;-2.0;3.0;-1.0;-27.0;-14.0;-23.0QW;13.0;146.0;-7.0;1399.0;241.0;-204.0;-11.0;131.0;-5.0;1317.0;440.0;-230.0;-17.0;208.0;11.0;-2221.0;269.0;291.0;-27.0;-26.0;20.0;-1815.0;-364.0;308.0;3.0;-39.0;13.0;-2357.0;-587.0;377.0;28.0;-60.0;-16.0;-1244.0;-131.0;108.0;10.0;-81.0;2.0;-583.0;148.0;-63.0;1.0;-68.0;8.0;199.0;159.0;-92.0;-8.0;-77.0;3.0;857.0;-31.0;-91.0;1.0;-18.0;-8.0;1227.0;-88.0;-88.0;-1.0;-9.0;-8.0;731.0;-54.0;-49.0;0.0;39.0;-8.0;92.0;51.0;34.0;-1.0;-7.0;-2.0;-136.0;44.0;78.0;7.0;-4.0;1.0;-26.0;44.0;72.0;10.0;-21.0;4.0;98.0;34.0;84.0;1.0;-15.0;4.0;117.0;11.0;12.0QW;0.0;159.0;-22.0;2240.0;192.0;-59.0;-9.0;147.0;19.0;310.0;1.0;-25.0;3.0;187.0;56.0;-5395.0;28.0;324.0;-4.0;-86.0;27.0;-2960.0;-222.0;153.0;13.0;-71.0;-22.0;-2170.0;101.0;26.0;-3.0;-74.0;0.0;-945.0;181.0;-117.0;-13.0;-93.0;-8.0;593.0;6.0;-77.0;-9.0;-62.0;3.0;1976.0;-154.0;-31.0;1.0;-13.0;-5.0;1731.0;-132.0;-5.0;10.0;32.0;-4.0;700.0;-2.0;-71.0;-3.0;10.0;1.0;158.0;6.0;-35.0;-1.0;4.0;1.0;-43.0;-11.0;-8.0;0.0;-5.0;4.0;56.0;5.0;-17.0;3.0;4.0;2.0;-61.0;-4.0;-16.0;1.0;-1.0;4.0;27.0;1.0;-28.0;-2.0;1.0;0.0;-40.0;-31.0;-15.0QW;10.0;169.0;-38.0;1984.0;102.0;-173.0;-3.0;174.0;9.0;-528.0;-36.0;127.0;16.0;174.0;50.0;-5758.0;185.0;479.0;-8.0;-94.0;34.0;-3957.0;-29.0;316.0;4.0;-136.0;-15.0;-1868.0;67.0;-92.0;0.0;-84.0;17.0;-230.0;77.0;-202.0;-1.0;-78.0;9.0;1589.0;-105.0;-144.0;1.0;-17.0;-2.0;1790.0;-66.0;21.0;1.0;4.0;-10.0;1077.0;-20.0;80.0;-3.0;3.0;-7.0;469.0;29.0;5.0;-1.0;-1.0;1.0;301.0;18.0;-27.0;0.0;2.0;-1.0;60.0;6.0;-18.0;1.0;2.0;0.0;100.0;-8.0;-17.0;0.0;1.0;0.0;-69.0;-1.0;5.0;-2.0;1.0;0.0;20.0;1.0;-7.0;0.0;0.0;2.0;-82.0;2.0;11.0QW;0.0;116.0;-3.0;872.0;132.0;-183.0;8.0;188.0;4.0;-2821.0;157.0;300.0;-15.0;84.0;65.0;-5666.0;-171.0;775.0;-7.0;-81.0;-21.0;-3803.0;17.0;305.0;4.0;-153.0;-7.0;-985.0;134.0;-131.0;-5.0;-111.0;10.0;1593.0;27.0;-369.0;5.0;-29.0;23.0;2527.0;-104.0;-94.0;-1.0;21.0;-3.0;1469.0;-91.0;-3.0;1.0;6.0;0.0;240.0;8.0;68.0;-2.0;2.0;-4.0;128.0;0.0;6.0;-1.0;5.0;-6.0;44.0;2.0;-1.0;-1.0;-1.0;-2.0;29.0;9.0;3.0;0.0;-1.0;-1.0;123.0;-6.0;15.0;-1.0;3.0;1.0;95.0;3.0;14.0;-3.0;5.0;0.0;-35.0;-11.0;2.0;-1.0;-3.0;0.0;-34.0;6.0;-13.0QW;-18.0;145.0;-74.0;2623.0;51.0;-338.0;-6.0;130.0;-4.0;907.0;72.0;7.0;10.0;202.0;16.0;-4491.0;248.0;437.0;27.0;-49.0;72.0;-3713.0;-67.0;611.0;-1.0;-81.0;-3.0;-3143.0;15.0;80.0;13.0;-91.0;4.0;-670.0;194.0;-236.0;-4.0;-91.0;13.0;121.0;92.0;-302.0;9.0;-38.0;5.0;1598.0;-34.0;-42.0;-5.0;-21.0;-3.0;1470.0;-63.0;78.0;-3.0;0.0;-5.0;856.0;-46.0;82.0;-6.0;3.0;-7.0;158.0;-2.0;-1.0;-1.0;-1.0;-4.0;102.0;-13.0;-42.0;-3.0;1.0;-6.0;24.0;-1.0;-19.0;4.0;-4.0;3.0;320.0;-25.0;-2.0;-1.0;7.0;-1.0;-54.0;-17.0;9.0;-1.0;-6.0;0.0;131.0;-35.0;-10.0QW;16.0;151.0;-9.0;1137.0;169.0;-222.0;8.0;190.0;14.0;-1323.0;148.0;176.0;-20.0;102.0;78.0;-5527.0;-167.0;1020.0;-15.0;-96.0;11.0;-2781.0;-133.0;384.0;4.0;-103.0;-10.0;-1759.0;42.0;9.0;-2.0;-80.0;14.0;24.0;112.0;-221.0;-3.0;-57.0;4.0;1148.0;-25.0;-142.0;1.0;-18.0;-5.0;1520.0;-48.0;-56.0;2.0;1.0;-8.0;896.0;-70.0;23.0;2.0;-3.0;-7.0;569.0;-13.0;25.0;0.0;3.0;-5.0;257.0;1.0;-3.0;-2.0;-2.0;0.0;107.0;31.0;-23.0;-3.0;1.0;1.0;65.0;-2.0;-39.0;0.0;-3.0;2.0;205.0;-6.0;-29.0;-1.0;12.0;-2.0;72.0;-5.0;-18.0;2.0;2.0;3.0;-59.0;16.0;2.0QW;0.0;99.0;10.0;708.0;186.0;-258.0;8.0;165.0;15.0;-2356.0;183.0;254.0;-8.0;73.0;108.0;-5340.0;-272.0;947.0;-5.0;-74.0;-21.0;-3231.0;-69.0;403.0;3.0;-109.0;-15.0;-1249.0;37.0;-77.0;-4.0;-104.0;-2.0;1315.0;-70.0;-281.0;3.0;-19.0;11.0;2331.0;-157.0;-151.0;-1.0;15.0;0.0;1631.0;-79.0;-60.0;5.0;21.0;-5.0;83.0;73.0;12.0;2.0;-5.0;2.0;127.0;65.0;9.0;1.0;3.0;3.0;78.0;38.0;14.0;-2.0;-4.0;3.0;33.0;13.0;14.0;-2.0;0.0;1.0;-3.0;-19.0;15.0;0.0;-2.0;-1.0;-24.0;-27.0;11.0;0.0;-1.0;-2.0;11.0;-4.0;11.0;0.0;1.0;-2.0;-6.0;1.0;1.0QW;2.0;-68.0;-179.0;6069.0;-240.0;-584.0;6.0;144.0;-7.0;1934.0;87.0;-330.0;12.0;226.0;40.0;-723.0;11.0;171.0;-3.0;149.0;177.0;-7191.0;219.0;819.0;-7.0;-124.0;5.0;-2827.0;-71.0;485.0;-15.0;-106.0;-18.0;-1661.0;34.0;-45.0;-10.0;-99.0;8.0;474.0;36.0;-238.0;-5.0;-48.0;7.0;1624.0;-161.0;-216.0;10.0;-12.0;0.0;1707.0;-120.0;-33.0;6.0;17.0;-7.0;758.0;-44.0;40.0;1.0;3.0;-3.0;280.0;24.0;63.0;-2.0;4.0;0.0;151.0;22.0;2.0;0.0;4.0;-1.0;-45.0;32.0;-21.0;0.0;1.0;2.0;-25.0;44.0;-26.0;4.0;0.0;2.0;12.0;28.0;-28.0;-1.0;0.0;5.0;10.0;-10.0;7.0QW;-22.0;197.0;-79.0;1768.0;-3.0;-301.0;-1.0;76.0;8.0;588.0;15.0;23.0;22.0;230.0;14.0;-5416.0;349.0;560.0;19.0;-149.0;55.0;-4166.0;60.0;463.0;-4.0;-98.0;-21.0;-2507.0;56.0;-15.0;1.0;-126.0;4.0;373.0;35.0;-172.0;1.0;-52.0;20.0;2739.0;-114.0;-151.0;1.0;21.0;11.0;2295.0;-121.0;-14.0;-1.0;37.0;-7.0;541.0;-32.0;-32.0;3.0;4.0;2.0;-210.0;65.0;-22.0;1.0;-1.0;3.0;90.0;19.0;-12.0;0.0;4.0;2.0;-60.0;13.0;3.0;-4.0;-1.0;3.0;-56.0;7.0;-6.0;1.0;0.0;2.0;-27.0;-15.0;-19.0;0.0;2.0;2.0;42.0;-15.0;-3.0;1.0;4.0;-1.0;-30.0;-5.0;9.0QW;20.0;144.0;-4.0;528.0;222.0;-192.0;0.0;116.0;3.0;-1063.0;26.0;245.0;-20.0;147.0;72.0;-6884.0;-130.0;1174.0;-19.0;-137.0;-15.0;-2806.0;-143.0;316.0;-4.0;-127.0;-14.0;-887.0;32.0;-115.0;5.0;-79.0;24.0;1709.0;17.0;-232.0;-5.0;-4.0;18.0;2180.0;-109.0;-84.0;3.0;16.0;5.0;1554.0;-31.0;-98.0;2.0;19.0;-4.0;127.0;5.0;-55.0;2.0;-4.0;1.0;92.0;35.0;-24.0;2.0;6.0;-1.0;6.0;-7.0;0.0;-1.0;1.0;1.0;-25.0;26.0;10.0;0.0;2.0;1.0;-2.0;-3.0;-8.0;0.0;0.0;1.0;-28.0;8.0;-3.0;0.0;1.0;1.0;6.0;-11.0;-1.0;0.0;0.0;0.0;-7.0;-4.0;0.0QW;13.0;143.0;-30.0;1501.0;193.0;-303.0;4.0;140.0;-5.0;-954.0;39.0;247.0;-5.0;121.0;62.0;-5439.0;-16.0;900.0;-17.0;-104.0;1.0;-4051.0;-85.0;436.0;-1.0;-123.0;-7.0;-1600.0;61.0;-189.0;-6.0;-111.0;17.0;683.0;52.0;-373.0;4.0;-37.0;29.0;2379.0;-111.0;-130.0;2.0;25.0;0.0;1661.0;-91.0;23.0;1.0;16.0;-4.0;261.0;-36.0;72.0;0.0;-8.0;-4.0;207.0;-14.0;0.0;0.0;1.0;-2.0;296.0;-11.0;-31.0;1.0;0.0;1.0;243.0;5.0;-7.0;0.0;4.0;2.0;103.0;-1.0;0.0;0.0;4.0;1.0;9.0;10.0;-2.0;1.0;4.0;1.0;-48.0;4.0;-7.0;-1.0;0.0;0.0;-100.0;10.0;6.0QW;11.0;200.0;-73.0;1765.0;96.0;-219.0;-4.0;112.0;10.0;108.0;9.0;84.0;4.0;216.0;18.0;-5872.0;195.0;589.0;-10.0;-142.0;61.0;-3753.0;19.0;366.0;1.0;-112.0;-21.0;-2316.0;81.0;-48.0;0.0;-107.0;15.0;-142.0;60.0;-162.0;-5.0;-69.0;11.0;2065.0;-173.0;-153.0;1.0;-4.0;12.0;2524.0;-157.0;-55.0;2.0;37.0;-6.0;1111.0;-88.0;-34.0;6.0;15.0;-2.0;64.0;36.0;7.0;1.0;2.0;0.0;-31.0;27.0;15.0;3.0;1.0;1.0;-67.0;43.0;31.0;-2.0;1.0;2.0;-11.0;29.0;9.0;0.0;-1.0;3.0;-47.0;19.0;12.0;-1.0;-1.0;2.0;-5.0;7.0;9.0;1.0;0.0;3.0;-2.0;-8.0;8.0QW;10.0;206.0;11.0;2477.0;146.0;-3.0;1.0;182.0;61.0;-1633.0;269.0;-13.0;11.0;192.0;202.0;-7676.0;422.0;67.0;-9.0;-133.0;63.0;-3684.0;-67.0;113.0;-8.0;-98.0;-8.0;-2156.0;48.0;155.0;-12.0;-71.0;-27.0;-1138.0;98.0;-159.0;-4.0;-82.0;-9.0;393.0;-61.0;-149.0;3.0;-36.0;-9.0;1192.0;-116.0;-84.0;9.0;2.0;-4.0;1095.0;-61.0;13.0;0.0;3.0;-18.0;123.0;11.0;42.0;-1.0;-16.0;-21.0;250.0;-45.0;11.0;3.0;-2.0;-11.0;500.0;-3.0;14.0;-1.0;-1.0;-14.0;451.0;-17.0;10.0;0.0;7.0;-12.0;173.0;43.0;-14.0;1.0;4.0;-8.0;117.0;-4.0;5.0;0.0;-4.0;-5.0;232.0;-18.0;15.0QW;-25.0;-90.0;-129.0;7655.0;-475.0;-501.0;-11.0;100.0;73.0;-75.0;-41.0;-171.0;21.0;198.0;69.0;-4842.0;380.0;207.0;18.0;119.0;191.0;-8787.0;529.0;634.0;5.0;-108.0;-13.0;-735.0;32.0;229.0;-8.0;-56.0;-14.0;605.0;-95.0;-130.0;7.0;-25.0;-4.0;1259.0;-61.0;-128.0;3.0;6.0;-11.0;-66.0;-6.0;-21.0;-3.0;-18.0;-18.0;-629.0;-16.0;33.0;-3.0;-23.0;-20.0;-292.0;-45.0;-31.0;1.0;-9.0;-17.0;538.0;-27.0;-27.0;1.0;5.0;-17.0;582.0;4.0;-28.0;2.0;5.0;-12.0;407.0;30.0;7.0;0.0;1.0;-11.0;301.0;-7.0;5.0;0.0;0.0;-7.0;183.0;-15.0;9.0;0.0;6.0;-4.0;102.0;-17.0;7.0QW;8.0;159.0;-138.0;5388.0;-265.0;-552.0;-10.0;38.0;88.0;28.0;-42.0;-19.0;19.0;197.0;109.0;-4510.0;187.0;-54.0;-9.0;-106.0;200.0;-6358.0;321.0;614.0;11.0;12.0;-30.0;-1781.0;169.0;42.0;-2.0;-57.0;-42.0;-1778.0;134.0;-115.0;7.0;-48.0;-14.0;-270.0;10.0;-111.0;-11.0;-67.0;-36.0;446.0;-84.0;-34.0;4.0;-16.0;-7.0;1009.0;-134.0;44.0;-6.0;-20.0;-35.0;770.0;-99.0;19.0;11.0;18.0;-9.0;839.0;-57.0;9.0;-1.0;1.0;-10.0;924.0;-69.0;65.0;0.0;11.0;-3.0;508.0;4.0;54.0;-2.0;1.0;-4.0;275.0;-15.0;34.0;-1.0;8.0;-2.0;-112.0;9.0;20.0;0.0;2.0;2.0;-55.0;-5.0;2.0QW;-20.0;79.0;-145.0;5355.0;-233.0;-656.0;-6.0;81.0;63.0;306.0;16.0;-193.0;16.0;206.0;71.0;-4677.0;194.0;-49.0;26.0;-13.0;198.0;-6062.0;257.0;739.0;4.0;-34.0;-12.0;-1839.0;102.0;214.0;-2.0;-50.0;-15.0;-970.0;63.0;-81.0;-5.0;-66.0;-7.0;-56.0;-36.0;-107.0;-3.0;-45.0;-19.0;621.0;-104.0;-79.0;2.0;-13.0;-17.0;624.0;-107.0;-19.0;-4.0;-5.0;-29.0;-87.0;-17.0;2.0;5.0;5.0;-21.0;-337.0;4.0;-1.0;-2.0;-27.0;-30.0;274.0;-20.0;20.0;5.0;7.0;-14.0;669.0;-19.0;29.0;1.0;-10.0;-11.0;1305.0;-62.0;67.0;2.0;16.0;1.0;679.0;-3.0;54.0;-1.0;1.0;-2.0;328.0;21.0;13.0QW;49.0;213.0;6.0;708.0;91.0;-20.0;-3.0;105.0;49.0;-2451.0;119.0;-55.0;6.0;200.0;201.0;-8317.0;176.0;374.0;-44.0;-168.0;43.0;-1586.0;-111.0;3.0;7.0;3.0;-23.0;-986.0;99.0;-70.0;10.0;-50.0;-8.0;-335.0;46.0;-35.0;-9.0;-37.0;-12.0;-269.0;65.0;-7.0;-2.0;-34.0;-6.0;644.0;-144.0;1.0;-8.0;-21.0;-17.0;497.0;-81.0;-20.0;4.0;0.0;-7.0;528.0;-72.0;-28.0;0.0;-11.0;-15.0;212.0;-19.0;17.0;5.0;3.0;-11.0;78.0;7.0;15.0;2.0;-4.0;-9.0;210.0;-11.0;26.0;3.0;-1.0;-8.0;254.0;-5.0;15.0;0.0;-1.0;-5.0;428.0;-27.0;46.0;-1.0;2.0;-5.0;333.0;-12.0;51.0QW;-18.0;7.0;-150.0;6572.0;-362.0;-677.0;10.0;143.0;45.0;287.0;110.0;-201.0;8.0;183.0;55.0;-3393.0;182.0;49.0;21.0;70.0;185.0;-7914.0;381.0;798.0;-8.0;-90.0;-13.0;-2645.0;45.0;200.0;-7.0;-100.0;-30.0;-1198.0;38.0;-148.0;-2.0;-76.0;-7.0;448.0;7.0;-173.0;-3.0;-41.0;-14.0;1168.0;-200.0;4.0;7.0;10.0;-10.0;900.0;-107.0;15.0;-2.0;-7.0;-21.0;622.0;-95.0;39.0;2.0;-1.0;-20.0;651.0;29.0;-16.0;1.0;-5.0;-14.0;735.0;-1.0;26.0;2.0;2.0;-6.0;489.0;29.0;34.0;-1.0;2.0;-3.0;341.0;7.0;17.0;-1.0;8.0;0.0;28.0;41.0;14.0;-1.0;1.0;1.0;-18.0;28.0;-20.0QW;-10.0;86.0;-143.0;4956.0;-218.0;-666.0;-3.0;92.0;57.0;-504.0;29.0;-46.0;28.0;200.0;92.0;-5006.0;248.0;23.0;9.0;-37.0;193.0;-6214.0;327.0;701.0;-4.0;-78.0;-18.0;-1299.0;122.0;-14.0;-3.0;-71.0;-13.0;95.0;-65.0;-216.0;-1.0;-45.0;-12.0;511.0;-112.0;-38.0;8.0;-3.0;-12.0;391.0;-104.0;42.0;-3.0;-12.0;-27.0;152.0;-74.0;45.0;2.0;-7.0;-23.0;301.0;15.0;-69.0;-1.0;-12.0;-19.0;887.0;-63.0;-14.0;4.0;18.0;-9.0;506.0;-7.0;32.0;0.0;0.0;-6.0;514.0;-39.0;65.0;1.0;9.0;-3.0;141.0;24.0;28.0;-1.0;-4.0;-4.0;29.0;6.0;9.0;0.0;0.0;-2.0;-79.0;14.0;0.0QW;32.0;205.0;-112.0;3361.0;73.0;-140.0;2.0;131.0;51.0;358.0;72.0;-73.0;21.0;238.0;129.0;-7172.0;254.0;-38.0;-32.0;-148.0;140.0;-5632.0;26.0;291.0;-3.0;-95.0;-28.0;-3133.0;110.0;4.0;0.0;-130.0;-17.0;-302.0;46.0;-242.0;-1.0;-57.0;9.0;1639.0;-91.0;-209.0;-4.0;-19.0;-1.0;1688.0;-211.0;74.0;3.0;22.0;-17.0;652.0;-110.0;79.0;-1.0;-6.0;-16.0;99.0;-49.0;62.0;-1.0;-9.0;-14.0;319.0;-16.0;12.0;1.0;-1.0;-8.0;409.0;34.0;0.0;1.0;-4.0;-9.0;568.0;15.0;-9.0;2.0;6.0;0.0;422.0;23.0;0.0;0.0;4.0;-2.0;278.0;-7.0;26.0;0.0;7.0;2.0;-78.0;25.0;15.0QW;-19.0;-135.0;-120.0;6477.0;-478.0;-327.0;8.0;216.0;8.0;1076.0;94.0;-120.0;7.0;149.0;49.0;-1861.0;108.0;12.0;24.0;225.0;163.0;-7505.0;592.0;443.0;-10.0;-167.0;28.0;-2992.0;13.0;117.0;-13.0;-88.0;-31.0;-1659.0;27.0;-107.0;-5.0;-94.0;-10.0;474.0;-96.0;-188.0;-3.0;-46.0;-13.0;1138.0;-135.0;15.0;10.0;20.0;-8.0;815.0;-71.0;43.0;0.0;2.0;-21.0;43.0;-33.0;48.0;3.0;-1.0;-22.0;314.0;16.0;-42.0;2.0;-5.0;-13.0;643.0;-28.0;34.0;0.0;-5.0;-12.0;781.0;-29.0;42.0;1.0;8.0;1.0;479.0;-13.0;44.0;-2.0;2.0;-1.0;323.0;5.0;8.0;0.0;5.0;2.0;-58.0;24.0;-3.0QW;18.0;211.0;-3.0;1467.0;64.0;-108.0;-6.0;135.0;45.0;-1093.0;27.0;-30.0;10.0;242.0;168.0;-8315.0;488.0;380.0;-20.0;-165.0;25.0;-3718.0;55.0;168.0;-1.0;-98.0;-24.0;-1932.0;68.0;-31.0;-3.0;-111.0;-7.0;700.0;-51.0;-230.0;-2.0;-36.0;6.0;1997.0;-137.0;-99.0;1.0;20.0;-4.0;983.0;-78.0;11.0;0.0;3.0;-19.0;-141.0;-31.0;75.0;4.0;-10.0;-16.0;-258.0;-1.0;19.0;-1.0;-23.0;-14.0;368.0;-40.0;27.0;1.0;-4.0;-12.0;564.0;14.0;-12.0;2.0;-2.0;-7.0;651.0;12.0;9.0;1.0;6.0;-7.0;369.0;24.0;-5.0;1.0;5.0;-1.0;257.0;22.0;14.0;-1.0;6.0;1.0;-3.0;14.0;3.0QW;32.0;84.0;-99.0;3032.0;118.0;-260.0;2.0;61.0;51.0;-55.0;20.0;33.0;36.0;209.0;74.0;-5475.0;290.0;-87.0;-31.0;-18.0;132.0;-4653.0;-12.0;365.0;-10.0;-48.0;-46.0;-2506.0;126.0;-58.0;6.0;-86.0;-23.0;-1090.0;-21.0;-173.0;-4.0;-81.0;-20.0;814.0;-167.0;-105.0;7.0;-11.0;4.0;1912.0;-178.0;33.0;-5.0;12.0;-11.0;1191.0;-68.0;85.0;2.0;10.0;-10.0;536.0;25.0;4.0;0.0;-3.0;-10.0;245.0;15.0;-3.0;-1.0;-8.0;-7.0;298.0;12.0;-4.0;1.0;6.0;-4.0;272.0;20.0;0.0;1.0;2.0;-3.0;324.0;12.0;-21.0;1.0;6.0;0.0;70.0;40.0;-12.0;0.0;-1.0;3.0;20.0;20.0;-11.0QW;-9.0;180.0;-52.0;1826.0;34.0;-228.0;9.0;109.0;35.0;-768.0;-11.0;28.0;30.0;214.0;92.0;-7107.0;535.0;431.0;6.0;-127.0;75.0;-3942.0;72.0;291.0;-14.0;-84.0;-30.0;-1954.0;57.0;-11.0;-6.0;-94.0;-10.0;246.0;-107.0;-143.0;3.0;-39.0;-2.0;1607.0;-136.0;-33.0;2.0;5.0;2.0;1417.0;-70.0;-8.0;0.0;17.0;-14.0;108.0;47.0;-7.0;0.0;-12.0;-8.0;-37.0;9.0;-39.0;1.0;-3.0;-11.0;76.0;-9.0;-13.0;0.0;-8.0;-9.0;154.0;-19.0;1.0;0.0;-5.0;-11.0;271.0;12.0;-7.0;0.0;-4.0;-6.0;365.0;18.0;-6.0;3.0;10.0;-4.0;248.0;31.0;-1.0;0.0;4.0;-2.0;169.0;1.0;9.0QW;7.0;178.0;-102.0;2967.0;101.0;-236.0;11.0;140.0;31.0;-218.0;136.0;-64.0;4.0;237.0;51.0;-6391.0;330.0;234.0;-9.0;-103.0;109.0;-5363.0;-62.0;451.0;-21.0;-135.0;-44.0;-3080.0;-5.0;36.0;4.0;-134.0;-4.0;-51.0;-7.0;-215.0;-1.0;-69.0;17.0;2170.0;-49.0;-213.0;8.0;34.0;18.0;2028.0;-99.0;4.0;0.0;33.0;-13.0;484.0;-30.0;17.0;1.0;-5.0;-16.0;-205.0;-5.0;-26.0;2.0;-11.0;-4.0;292.0;-27.0;6.0;-1.0;-6.0;-10.0;219.0;-19.0;5.0;2.0;1.0;-5.0;251.0;-6.0;3.0;0.0;-6.0;-5.0;348.0;6.0;7.0;1.0;5.0;-2.0;199.0;32.0;17.0;0.0;0.0;0.0;131.0;12.0;23.0QW;-4.0;-52.0;-159.0;6561.0;-235.0;-570.0;11.0;207.0;-14.0;423.0;81.0;-8.0;-2.0;178.0;18.0;-1905.0;46.0;170.0;-2.0;142.0;163.0;-8734.0;258.0;753.0;-10.0;-193.0;9.0;-3131.0;32.0;-1.0;4.0;-119.0;-13.0;-1231.0;42.0;-182.0;4.0;-92.0;12.0;1475.0;-11.0;-214.0;-4.0;-10.0;15.0;2113.0;-107.0;-37.0;0.0;21.0;-9.0;1224.0;-52.0;-9.0;2.0;4.0;-11.0;529.0;-19.0;3.0;2.0;-6.0;-6.0;513.0;-40.0;33.0;0.0;2.0;-4.0;170.0;-21.0;31.0;-1.0;-2.0;-3.0;-18.0;-35.0;23.0;1.0;2.0;-3.0;-127.0;6.0;-4.0;0.0;-9.0;-5.0;37.0;-3.0;-2.0;1.0;0.0;-4.0;163.0;22.0;4.0QW;6.0;79.0;-76.0;3311.0;165.0;-407.0;-1.0;99.0;15.0;1065.0;169.0;-164.0;21.0;246.0;34.0;-4884.0;353.0;109.0;-9.0;-13.0;95.0;-4682.0;-274.0;588.0;5.0;-49.0;-4.0;-3282.0;-70.0;205.0;-3.0;-113.0;-19.0;-1334.0;-10.0;-109.0;2.0;-69.0;4.0;423.0;113.0;-197.0;-4.0;-34.0;2.0;1190.0;-114.0;-39.0;2.0;3.0;-10.0;1099.0;-76.0;-44.0;3.0;7.0;-15.0;404.0;-12.0;-19.0;1.0;-9.0;-15.0;379.0;6.0;-10.0;4.0;-3.0;-5.0;512.0;18.0;25.0;-1.0;-3.0;-10.0;442.0;-6.0;39.0;0.0;0.0;-5.0;340.0;4.0;21.0;-1.0;0.0;-3.0;284.0;-2.0;3.0;-1.0;-2.0;0.0;106.0;13.0;-6.0QW;29.0;184.0;-155.0;4561.0;243.0;-391.0;-12.0;64.0;40.0;-158.0;71.0;136.0;24.0;223.0;33.0;-4975.0;131.0;-87.0;-27.0;-150.0;180.0;-5936.0;-254.0;368.0;15.0;-31.0;-11.0;-1210.0;57.0;-220.0;4.0;-71.0;-2.0;-200.0;126.0;-106.0;-7.0;-27.0;-6.0;200.0;67.0;-1.0;-4.0;-30.0;-8.0;715.0;-98.0;46.0;-1.0;-17.0;-5.0;948.0;-93.0;10.0;5.0;0.0;-5.0;769.0;-54.0;-8.0;-1.0;4.0;-12.0;190.0;-57.0;24.0;-2.0;-8.0;-15.0;-23.0;-77.0;-9.0;5.0;-11.0;-7.0;262.0;-41.0;4.0;5.0;-5.0;-6.0;442.0;-3.0;-14.0;3.0;7.0;0.0;287.0;47.0;3.0;-5.0;6.0;-1.0;83.0;38.0;30.0QW;-14.0;73.0;-156.0;4044.0;173.0;-444.0;4.0;51.0;22.0;874.0;123.0;-166.0;17.0;246.0;27.0;-4478.0;164.0;-73.0;14.0;-30.0;178.0;-4486.0;-196.0;488.0;0.0;27.0;-7.0;-2505.0;-48.0;292.0;-1.0;-96.0;-21.0;-1550.0;57.0;-54.0;-1.0;-44.0;-9.0;-1264.0;42.0;-79.0;-10.0;-94.0;3.0;788.0;-114.0;-135.0;-3.0;-23.0;-9.0;1445.0;-85.0;-102.0;2.0;2.0;-9.0;1229.0;-62.0;-35.0;4.0;12.0;-22.0;570.0;16.0;-45.0;9.0;12.0;2.0;704.0;7.0;73.0;-1.0;-3.0;-7.0;369.0;18.0;73.0;3.0;1.0;3.0;124.0;14.0;64.0;-2.0;-7.0;-2.0;66.0;1.0;17.0;0.0;-2.0;2.0;48.0;18.0;13.0QW;18.0;89.0;21.0;230.0;174.0;-222.0;6.0;149.0;23.0;-1833.0;91.0;-7.0;7.0;109.0;187.0;-6765.0;-66.0;896.0;-12.0;-53.0;6.0;-1516.0;-134.0;278.0;-10.0;-87.0;-2.0;-1011.0;-32.0;6.0;5.0;-61.0;9.0;832.0;59.0;-146.0;-7.0;-13.0;-5.0;1021.0;-65.0;-35.0;8.0;27.0;-9.0;610.0;-41.0;-3.0;-1.0;4.0;-8.0;-213.0;-21.0;-21.0;0.0;-18.0;-7.0;-131.0;-5.0;-12.0;2.0;-13.0;-4.0;292.0;9.0;7.0;0.0;-8.0;-4.0;527.0;-3.0;11.0;0.0;6.0;-2.0;426.0;35.0;-12.0;0.0;3.0;1.0;115.0;-1.0;-8.0;1.0;0.0;1.0;-9.0;12.0;-4.0;0.0;0.0;1.0;-79.0;-7.0;-3.0QW;4.0;94.0;33.0;-2772.0;255.0;140.0;17.0;21.0;70.0;-3239.0;-367.0;625.0;7.0;-79.0;7.0;-2104.0;-202.0;323.0;10.0;-82.0;2.0;-615.0;-39.0;31.0;3.0;-43.0;4.0;514.0;203.0;-129.0;-2.0;-12.0;15.0;1196.0;128.0;-100.0;-9.0;6.0;-4.0;733.0;31.0;-51.0;4.0;20.0;-6.0;127.0;-22.0;-41.0;1.0;-10.0;-3.0;-248.0;-12.0;5.0;2.0;-8.0;-3.0;-106.0;3.0;37.0;-3.0;-17.0;-2.0;159.0;-28.0;40.0;-1.0;-5.0;-5.0;218.0;-34.0;-17.0;2.0;0.0;-2.0;121.0;-13.0;-31.0;1.0;-4.0;-3.0;-99.0;5.0;-9.0;-1.0;-10.0;0.0;170.0;4.0;-4.0;-1.0;2.0;-2.0;91.0;11.0;-18.0QW;-16.0;67.0;-84.0;2938.0;111.0;-344.0;0.0;108.0;6.0;472.0;110.0;-29.0;13.0;210.0;8.0;-4330.0;204.0;246.0;17.0;-9.0;77.0;-4581.0;-122.0;544.0;0.0;-88.0;-12.0;-2643.0;-5.0;25.0;5.0;-98.0;-4.0;-851.0;115.0;-208.0;-4.0;-74.0;7.0;1002.0;-4.0;-253.0;0.0;-20.0;7.0;1888.0;-110.0;-26.0;-1.0;4.0;-4.0;1348.0;-63.0;14.0;4.0;11.0;-7.0;475.0;-7.0;56.0;-1.0;-7.0;-6.0;206.0;-9.0;40.0;0.0;0.0;-1.0;324.0;5.0;8.0;-1.0;0.0;-2.0;165.0;14.0;-4.0;2.0;3.0;0.0;75.0;17.0;-13.0;1.0;-3.0;-1.0;7.0;8.0;-4.0;-1.0;-1.0;2.0;40.0;12.0;-7.0QW;-30.0;133.0;-104.0;1928.0;76.0;-463.0;10.0;86.0;22.0;-3.0;68.0;-53.0;21.0;221.0;78.0;-6337.0;245.0;452.0;24.0;-87.0;101.0;-3909.0;-125.0;597.0;-5.0;-89.0;-19.0;-1982.0;-83.0;73.0;1.0;-91.0;-1.0;-172.0;3.0;-51.0;1.0;-51.0;3.0;1573.0;-72.0;-74.0;-6.0;7.0;1.0;1655.0;-82.0;-26.0;-1.0;6.0;-16.0;798.0;-2.0;-107.0;7.0;6.0;-3.0;415.0;98.0;-69.0;3.0;-3.0;-3.0;319.0;74.0;16.0;2.0;-1.0;3.0;148.0;54.0;30.0;-1.0;-5.0;2.0;17.0;32.0;1.0;-1.0;-1.0;3.0;5.0;15.0;-33.0;0.0;-1.0;2.0;38.0;4.0;-32.0;0.0;2.0;0.0;11.0;-11.0;-13.0QW;-6.0;-13.0;-67.0;4215.0;76.0;-780.0;-2.0;145.0;-29.0;1500.0;201.0;-315.0;7.0;222.0;16.0;-3932.0;56.0;352.0;-4.0;98.0;91.0;-4663.0;-219.0;838.0;4.0;-90.0;40.0;-2104.0;-279.0;613.0;1.0;-28.0;21.0;-373.0;129.0;123.0;7.0;-41.0;-3.0;-973.0;126.0;188.0;-1.0;-18.0;1.0;-711.0;5.0;-61.0;4.0;-82.0;-24.0;-565.0;-120.0;-139.0;10.0;-47.0;-21.0;702.0;-29.0;-152.0;3.0;-17.0;-19.0;605.0;69.0;-19.0;-1.0;-20.0;-19.0;731.0;13.0;57.0;-4.0;-5.0;-12.0;647.0;33.0;57.0;-6.0;-14.0;-5.0;732.0;23.0;12.0;-3.0;6.0;2.0;603.0;70.0;-49.0;-3.0;3.0;2.0;297.0;41.0;-85.0QW;-4.0;0.0;-165.0;5628.0;-336.0;-667.0;15.0;218.0;-24.0;1643.0;180.0;-325.0;1.0;214.0;65.0;-1162.0;-87.0;224.0;6.0;76.0;188.0;-5806.0;230.0;749.0;-6.0;-177.0;61.0;-1363.0;-204.0;457.0;3.0;-58.0;-13.0;-65.0;65.0;-33.0;5.0;-5.0;12.0;160.0;112.0;-96.0;-1.0;23.0;6.0;156.0;62.0;-56.0;-2.0;-3.0;5.0;45.0;7.0;-10.0;-2.0;-5.0;4.0;22.0;12.0;11.0;-1.0;2.0;2.0;43.0;-12.0;16.0;-1.0;2.0;0.0;-79.0;-14.0;38.0;0.0;-6.0;-4.0;-7.0;-13.0;16.0;0.0;-1.0;-2.0;-148.0;-6.0;8.0;1.0;-12.0;1.0;-107.0;-8.0;-3.0;1.0;-5.0;-1.0;85.0;27.0;2.0QW;40.0;225.0;-24.0;410.0;229.0;-93.0;-6.0;180.0;13.0;-1333.0;-96.0;130.0;21.0;149.0;178.0;-6846.0;212.0;747.0;-41.0;-156.0;44.0;-126.0;-89.0;101.0;4.0;-57.0;5.0;293.0;70.0;-119.0;-6.0;-12.0;17.0;277.0;68.0;-110.0;2.0;6.0;7.0;-88.0;-54.0;-18.0;1.0;-3.0;-1.0;141.0;-1.0;-15.0;-2.0;-2.0;1.0;117.0;4.0;-5.0;-2.0;9.0;-3.0;-31.0;-25.0;20.0;-1.0;-1.0;-2.0;-15.0;-9.0;12.0;1.0;-1.0;0.0;36.0;2.0;5.0;0.0;1.0;1.0;-173.0;-6.0;38.0;1.0;-11.0;5.0;-119.0;-7.0;3.0;1.0;-4.0;0.0;-89.0;7.0;13.0;1.0;-11.0;0.0;159.0;13.0;-35.0QW;-18.0;219.0;-115.0;3284.0;142.0;-44.0;-13.0;108.0;37.0;235.0;-14.0;-111.0;33.0;193.0;96.0;-6879.0;325.0;-31.0;22.0;-166.0;136.0;-2534.0;-126.0;-5.0;5.0;-9.0;-6.0;-152.0;27.0;12.0;-4.0;4.0;9.0;357.0;43.0;21.0;-6.0;10.0;7.0;-271.0;-67.0;-32.0;6.0;-25.0;1.0;-57.0;-37.0;-11.0;1.0;-4.0;1.0;307.0;21.0;-33.0;1.0;2.0;-1.0;139.0;1.0;18.0;-1.0;7.0;-1.0;26.0;0.0;43.0;-1.0;-5.0;-1.0;-48.0;0.0;20.0;0.0;2.0;2.0;-63.0;-5.0;16.0;1.0;-5.0;1.0;-28.0;-2.0;7.0;4.0;-3.0;1.0;9.0;13.0;2.0;1.0;-3.0;-1.0;21.0;21.0;19.0QW;-25.0;-123.0;-173.0;7852.0;-376.0;-467.0;15.0;231.0;8.0;473.0;169.0;-115.0;1.0;205.0;32.0;-1608.0;29.0;-73.0;25.0;182.0;200.0;-7509.0;301.0;455.0;-13.0;-158.0;33.0;-5.0;-77.0;73.0;-4.0;-18.0;4.0;-82.0;42.0;32.0;-4.0;10.0;8.0;228.0;44.0;-24.0;-3.0;7.0;4.0;-176.0;-86.0;7.0;4.0;-21.0;3.0;-129.0;-45.0;11.0;3.0;-5.0;3.0;40.0;-17.0;5.0;1.0;-8.0;-2.0;67.0;-33.0;-14.0;0.0;-6.0;0.0;-32.0;-23.0;-5.0;3.0;-7.0;2.0;42.0;2.0;1.0;2.0;-3.0;4.0;-85.0;3.0;29.0;2.0;-8.0;0.0;56.0;15.0;-2.0;0.0;-7.0;0.0;26.0;9.0;-12.0QW;13.0;9.0;-106.0;4317.0;321.0;-759.0;-2.0;147.0;7.0;317.0;152.0;-158.0;-3.0;182.0;29.0;-2703.0;66.0;-101.0;-13.0;69.0;113.0;-4821.0;-370.0;818.0;3.0;-78.0;14.0;-282.0;-80.0;137.0;9.0;-20.0;-5.0;31.0;24.0;103.0;-3.0;-3.0;13.0;352.0;46.0;-52.0;-1.0;5.0;2.0;-195.0;-49.0;7.0;0.0;-17.0;1.0;134.0;-7.0;-50.0;1.0;7.0;4.0;-86.0;1.0;-7.0;0.0;-8.0;3.0;-42.0;-15.0;-13.0;2.0;2.0;1.0;-48.0;14.0;11.0;0.0;-8.0;0.0;228.0;21.0;-32.0;0.0;2.0;-1.0;105.0;7.0;4.0;-1.0;-1.0;2.0;79.0;6.0;-6.0;0.0;-1.0;-1.0;-82.0;-18.0;10.0QW;10.0;208.0;-61.0;1542.0;154.0;-178.0;-5.0;77.0;16.0;53.0;-11.0;-13.0;13.0;176.0;27.0;-4165.0;232.0;157.0;-10.0;-166.0;80.0;-1772.0;-150.0;206.0;3.0;-13.0;-6.0;-228.0;4.0;11.0;5.0;-13.0;1.0;122.0;-2.0;-12.0;-2.0;20.0;-5.0;-52.0;-46.0;7.0;1.0;-19.0;3.0;-165.0;-46.0;-7.0;1.0;-1.0;-1.0;-7.0;-13.0;1.0;-1.0;-14.0;3.0;-92.0;-18.0;-20.0;1.0;1.0;2.0;-7.0;-16.0;-2.0;2.0;-17.0;2.0;82.0;23.0;-2.0;2.0;-8.0;1.0;304.0;54.0;-21.0;0.0;-2.0;1.0;142.0;42.0;-9.0;1.0;0.0;2.0;87.0;17.0;-7.0;1.0;8.0;2.0;-124.0;1.0;9.0QW;-11.0;92.0;16.0;81.0;-93.0;-125.0;-15.0;62.0;74.0;-4392.0;-142.0;564.0;-15.0;-106.0;15.0;-286.0;-132.0;135.0;3.0;-28.0;1.0;-332.0;-48.0;65.0;-1.0;-3.0;3.0;299.0;12.0;-25.0;-3.0;1.0;-3.0;19.0;-50.0;-14.0;-1.0;-1.0;-4.0;10.0;-8.0;-19.0;2.0;-4.0;1.0;43.0;7.0;-15.0;1.0;9.0;2.0;-304.0;-9.0;20.0;2.0;-15.0;2.0;-91.0;-11.0;8.0;0.0;-3.0;3.0;-193.0;-17.0;19.0;3.0;-17.0;3.0;147.0;5.0;5.0;0.0;-6.0;1.0;129.0;31.0;12.0;-1.0;-8.0;1.0;167.0;27.0;13.0;-1.0;-2.0;0.0;82.0;18.0;-2.0;1.0;-1.0;1.0;64.0;4.0;-11.0QW;3.0;98.0;10.0;421.0;120.0;-173.0;3.0;125.0;3.0;-1245.0;20.0;-28.0;-44.0;-28.0;109.0;-3900.0;-86.0;649.0;-4.0;-55.0;16.0;-152.0;-91.0;142.0;-4.0;-7.0;2.0;130.0;-37.0;42.0;2.0;-4.0;-3.0;54.0;-10.0;13.0;-1.0;8.0;-6.0;-74.0;-42.0;-2.0;2.0;-10.0;-2.0;-20.0;-2.0;-16.0;0.0;-1.0;-1.0;31.0;7.0;16.0;1.0;1.0;0.0;-52.0;11.0;28.0;-1.0;-6.0;1.0;48.0;11.0;18.0;-2.0;-5.0;2.0;45.0;19.0;-3.0;1.0;1.0;2.0;78.0;0.0;-13.0;0.0;-2.0;1.0;2.0;-6.0;3.0;1.0;0.0;-1.0;24.0;-8.0;-3.0;0.0;-1.0;-2.0;-37.0;0.0;1.0QW;29.0;223.0;-76.0;2134.0;125.0;26.0;-15.0;19.0;59.0;-487.0;-78.0;-67.0;36.0;190.0;105.0;-5765.0;214.0;-250.0;-28.0;-175.0;121.0;-1755.0;-147.0;2.0;12.0;43.0;-5.0;591.0;135.0;44.0;-3.0;-8.0;-10.0;146.0;-52.0;82.0;-1.0;3.0;-3.0;111.0;19.0;-40.0;4.0;3.0;-4.0;-78.0;-23.0;-35.0;0.0;-12.0;2.0;-34.0;7.0;-3.0;2.0;2.0;2.0;-41.0;9.0;4.0;0.0;-2.0;0.0;-90.0;-15.0;23.0;-2.0;-1.0;1.0;-7.0;1.0;2.0;0.0;2.0;0.0;-49.0;-12.0;-4.0;-1.0;-4.0;-1.0;-65.0;-11.0;14.0;1.0;-3.0;-1.0;-17.0;-9.0;17.0;1.0;-6.0;-2.0;70.0;-1.0;15.0QW;-10.0;126.0;-57.0;2174.0;176.0;-56.0;-10.0;67.0;20.0;-263.0;-22.0;24.0;3.0;147.0;44.0;-3878.0;185.0;-37.0;17.0;-79.0;78.0;-2672.0;-219.0;82.0;10.0;-35.0;3.0;85.0;34.0;-50.0;4.0;-11.0;2.0;342.0;27.0;47.0;-5.0;-4.0;2.0;493.0;30.0;-43.0;0.0;19.0;-2.0;-35.0;-23.0;-4.0;0.0;-8.0;0.0;-3.0;-16.0;7.0;1.0;-1.0;-2.0;-9.0;4.0;-13.0;2.0;-10.0;0.0;-2.0;-9.0;4.0;2.0;-2.0;0.0;60.0;25.0;-1.0;-1.0;-4.0;1.0;-75.0;7.0;36.0;0.0;2.0;1.0;-40.0;4.0;14.0;-1.0;-4.0;1.0;-111.0;-9.0;21.0;0.0;-6.0;0.0;-61.0;-21.0;-4.0QW;-9.0;78.0;-47.0;2002.0;195.0;-67.0;-1.0;93.0;21.0;655.0;97.0;-102.0;8.0;207.0;43.0;-4219.0;207.0;30.0;5.0;-9.0;69.0;-2268.0;-193.0;102.0;-2.0;-21.0;6.0;-621.0;-91.0;84.0;2.0;-20.0;-4.0;17.0;-39.0;55.0;-1.0;-9.0;4.0;112.0;-40.0;-27.0;1.0;-18.0;-1.0;-199.0;-65.0;2.0;3.0;-6.0;-1.0;44.0;-14.0;-21.0;3.0;-4.0;0.0;90.0;9.0;-3.0;1.0;3.0;1.0;16.0;13.0;28.0;-1.0;-9.0;0.0;79.0;24.0;3.0;1.0;1.0;0.0;97.0;23.0;-22.0;0.0;-2.0;1.0;77.0;20.0;-17.0;1.0;4.0;0.0;-21.0;5.0;1.0;0.0;-6.0;1.0;-20.0;-7.0;2.0QW;64.0;108.0;-59.0;3572.0;138.0;-904.0;-1.0;52.0;28.0;386.0;56.0;-190.0;8.0;151.0;17.0;-1966.0;68.0;21.0;-63.0;-26.0;83.0;-3744.0;-162.0;957.0;3.0;0.0;-5.0;-442.0;-46.0;213.0;3.0;-6.0;-5.0;-184.0;-28.0;27.0;0.0;-20.0;5.0;99.0;27.0;-59.0;-1.0;14.0;4.0;-283.0;-52.0;23.0;-2.0;-12.0;6.0;-114.0;-33.0;3.0;3.0;-8.0;4.0;-28.0;-26.0;5.0;3.0;-8.0;1.0;233.0;29.0;-29.0;0.0;0.0;-3.0;35.0;16.0;-11.0;-1.0;-5.0;0.0;68.0;-4.0;-23.0;0.0;-8.0;2.0;-12.0;-12.0;-16.0;3.0;-4.0;2.0;161.0;19.0;-7.0;0.0;0.0;0.0;47.0;25.0;11.0QW;39.0;223.0;35.0;214.0;144.0;-16.0;25.0;110.0;45.0;-482.0;90.0;-63.0;40.0;196.0;119.0;-6375.0;560.0;71.0;-42.0;-169.0;15.0;-152.0;-140.0;32.0;-23.0;-27.0;-1.0;-205.0;-52.0;69.0;-1.0;-15.0;0.0;-111.0;14.0;-37.0;5.0;7.0;3.0;44.0;20.0;-5.0;-1.0;-11.0;2.0;79.0;-7.0;16.0;-2.0;-6.0;1.0;-36.0;-9.0;37.0;0.0;-3.0;0.0;21.0;-9.0;-1.0;0.0;-3.0;-2.0;-19.0;-20.0;-11.0;0.0;-1.0;0.0;51.0;-4.0;-7.0;-1.0;-1.0;-2.0;-18.0;-5.0;-1.0;1.0;0.0;0.0;10.0;9.0;10.0;0.0;0.0;0.0;18.0;5.0;0.0;1.0;-1.0;1.0;-21.0;0.0;2.0QW;10.0;211.0;-31.0;1095.0;31.0;-17.0;4.0;90.0;28.0;241.0;-60.0;-40.0;29.0;200.0;66.0;-6528.0;478.0;223.0;-9.0;-158.0;53.0;-1010.0;-17.0;35.0;-5.0;-23.0;-1.0;-343.0;21.0;38.0;3.0;-14.0;5.0;324.0;45.0;-55.0;0.0;1.0;3.0;-71.0;-27.0;-4.0;2.0;2.0;2.0;18.0;1.0;-7.0;0.0;2.0;0.0;32.0;-7.0;18.0;-2.0;-4.0;0.0;5.0;-20.0;-12.0;0.0;-12.0;-1.0;-79.0;-30.0;-7.0;2.0;-11.0;1.0;223.0;11.0;-19.0;0.0;2.0;1.0;43.0;16.0;7.0;1.0;2.0;0.0;133.0;13.0;0.0;-3.0;0.0;1.0;-37.0;-1.0;3.0;0.0;1.0;0.0;30.0;-2.0;-1.0QW;-5.0;219.0;19.0;-949.0;54.0;30.0;3.0;104.0;47.0;-521.0;-29.0;-22.0;6.0;179.0;209.0;-7960.0;246.0;331.0;6.0;-171.0;30.0;1214.0;-77.0;-1.0;-2.0;-21.0;-2.0;-38.0;-1.0;36.0;2.0;7.0;5.0;12.0;38.0;-21.0;1.0;3.0;-1.0;-43.0;-40.0;11.0;1.0;-3.0;7.0;-153.0;-16.0;16.0;3.0;-11.0;0.0;-154.0;-49.0;29.0;6.0;-4.0;0.0;-249.0;-40.0;0.0;3.0;-16.0;-6.0;-88.0;-5.0;30.0;-3.0;-12.0;-1.0;114.0;32.0;-2.0;-5.0;-15.0;0.0;102.0;42.0;-25.0;2.0;-9.0;0.0;164.0;10.0;-31.0;3.0;-6.0;-4.0;-303.0;38.0;7.0;4.0;-1.0;-6.0;26.0;22.0;45.0QW;-4.0;150.0;10.0;-1050.0;70.0;44.0;-14.0;69.0;34.0;-3745.0;-49.0;264.0;3.0;-60.0;21.0;-1489.0;-62.0;114.0;4.0;-50.0;2.0;-363.0;-19.0;-68.0;-1.0;0.0;2.0;123.0;29.0;-93.0;-3.0;13.0;10.0;-190.0;-57.0;-19.0;0.0;-4.0;2.0;-95.0;-25.0;26.0;-1.0;1.0;4.0;-371.0;-21.0;52.0;3.0;-25.0;-1.0;-282.0;14.0;33.0;2.0;-21.0;0.0;-465.0;10.0;14.0;0.0;-31.0;0.0;65.0;22.0;-36.0;0.0;-28.0;0.0;516.0;-11.0;-51.0;1.0;-4.0;1.0;439.0;13.0;6.0;1.0;-13.0;1.0;388.0;14.0;32.0;-1.0;-3.0;-1.0;70.0;30.0;16.0;0.0;-5.0;1.0;138.0;8.0;-15.0QW;-4.0;123.0;-3.0;-1116.0;-72.0;87.0;-9.0;47.0;50.0;-3916.0;-279.0;432.0;-4.0;-62.0;6.0;-622.0;-147.0;-248.0;13.0;-6.0;-4.0;-253.0;32.0;-47.0;-7.0;0.0;14.0;-676.0;-61.0;-28.0;4.0;-36.0;11.0;-382.0;21.0;13.0;1.0;-30.0;4.0;-175.0;59.0;41.0;3.0;-27.0;-4.0;-245.0;72.0;49.0;-2.0;-38.0;-15.0;-78.0;-11.0;49.0;-5.0;-49.0;-5.0;914.0;4.0;-49.0;0.0;-18.0;2.0;843.0;13.0;-29.0;2.0;0.0;5.0;736.0;14.0;-22.0;3.0;6.0;2.0;16.0;-8.0;-13.0;2.0;3.0;-1.0;124.0;-3.0;-19.0;-1.0;5.0;-3.0;7.0;-9.0;-10.0;-2.0;5.0;-2.0;-59.0;11.0;15.0