Lable;AccX1;AccY1;AccZ1;GyrX1;GyrY1;GyrZ1;AccX2;AccY2;AccZ2;GyrX2;GyrY2;GyrZ2;AccX3;AccY3;AccZ3;GyrX3;GyrY3;GyrZ3;AccX4;AccY4;AccZ4;GyrX4;GyrY4;GyrZ4;AccX5;AccY5;AccZ5;GyrX5;GyrY5;GyrZ5;AccX6;AccY6;AccZ6;GyrX6;GyrY6;GyrZ6;AccX7;AccY7;AccZ7;GyrX7;GyrY7;GyrZ7;AccX8;AccY8;AccZ8;GyrX8;GyrY8;GyrZ8;AccX9;AccY9;AccZ9;GyrX9;GyrY9;GyrZ9;AccX10;AccY10;AccZ10;GyrX10;GyrY10;GyrZ10;AccX11;AccY11;AccZ11;GyrX11;GyrY11;GyrZ11;AccX12;AccY12;AccZ12;GyrX12;GyrY12;GyrZ12;AccX13;AccY13;AccZ13;GyrX13;GyrY13;GyrZ13;AccX14;AccY14;AccZ14;GyrX14;GyrY14;GyrZ14;AccX15;AccY15;AccZ15;GyrX15;GyrY15;GyrZ15;AccX16;AccY16;AccZ16;GyrX16;GyrY16;GyrZ16RIGHT2;-44.0;-84.0;1.0;5.0;295.0;-1227.0;-64.0;24.0;13.0;178.0;189.0;-1224.0;-63.0;183.0;15.0;71.0;-151.0;-555.0;18.0;199.0;-1.0;-139.0;-348.0;423.0;96.0;148.0;-20.0;-312.0;-309.0;1016.0;105.0;79.0;-22.0;-259.0;-65.0;1264.0;55.0;8.0;-6.0;25.0;38.0;1280.0;-15.0;-57.0;19.0;127.0;-37.0;1132.0;-54.0;-103.0;27.0;386.0;-183.0;958.0;-43.0;-109.0;22.0;251.0;-202.0;503.0;-6.0;-94.0;-9.0;118.0;-74.0;-48.0;26.0;-68.0;-10.0;-16.0;153.0;-538.0;14.0;-31.0;-15.0;71.0;265.0;-729.0;-2.0;17.0;-1.0;-93.0;259.0;-604.0;-16.0;27.0;6.0;-302.0;133.0;-297.0;1.0;28.0;5.0;-284.0;-30.0;-115.0RIGHT2;-40.0;-95.0;8.0;-181.0;216.0;-1186.0;-79.0;-44.0;5.0;-495.0;346.0;-1805.0;-151.0;169.0;23.0;110.0;-5.0;-1545.0;-44.0;247.0;-31.0;644.0;-483.0;-257.0;113.0;267.0;-54.0;5.0;-297.0;1277.0;233.0;130.0;-69.0;237.0;-8.0;1609.0;101.0;-15.0;6.0;-879.0;491.0;1782.0;-3.0;-128.0;40.0;283.0;49.0;1137.0;-59.0;-138.0;39.0;-161.0;-22.0;1086.0;-22.0;-108.0;26.0;388.0;-137.0;400.0;-29.0;-58.0;5.0;243.0;-64.0;53.0;-19.0;-30.0;7.0;93.0;-57.0;-77.0;1.0;-35.0;1.0;120.0;-55.0;-271.0;4.0;-14.0;5.0;-29.0;-3.0;-261.0;11.0;-19.0;3.0;-22.0;-12.0;-321.0;7.0;5.0;-5.0;-35.0;-26.0;-280.0RIGHT2;-80.0;-122.0;4.0;-205.0;325.0;-1665.0;-163.0;39.0;30.0;761.0;189.0;-1767.0;-108.0;322.0;-21.0;183.0;-463.0;-910.0;71.0;322.0;-65.0;334.0;-719.0;1118.0;218.0;162.0;-115.0;-374.0;-408.0;1836.0;168.0;-42.0;-59.0;-34.0;388.0;1954.0;22.0;-72.0;14.0;-242.0;608.0;1232.0;-48.0;-77.0;59.0;-332.0;441.0;1068.0;-50.0;-100.0;74.0;-87.0;115.0;779.0;-58.0;-115.0;62.0;129.0;-171.0;253.0;-25.0;-91.0;37.0;434.0;-274.0;-60.0;-1.0;-67.0;10.0;154.0;-215.0;-354.0;31.0;-20.0;-13.0;378.0;-114.0;-440.0;27.0;-2.0;-15.0;-260.0;2.0;-544.0;20.0;27.0;-13.0;31.0;-20.0;-447.0;8.0;13.0;-5.0;-358.0;34.0;-335.0RIGHT2;-32.0;-119.0;7.0;-67.0;11.0;-717.0;-49.0;-88.0;2.0;-347.0;192.0;-1285.0;-59.0;24.0;18.0;34.0;418.0;-1371.0;-117.0;181.0;-2.0;226.0;143.0;-1076.0;9.0;279.0;-20.0;260.0;-247.0;594.0;94.0;198.0;-72.0;179.0;-390.0;1506.0;157.0;55.0;-29.0;-316.0;-83.0;2065.0;47.0;-95.0;14.0;-21.0;136.0;1317.0;-31.0;-123.0;50.0;-185.0;19.0;934.0;-33.0;-127.0;34.0;166.0;-194.0;555.0;-23.0;-112.0;4.0;266.0;-201.0;82.0;7.0;-58.0;-11.0;187.0;-64.0;-262.0;15.0;-15.0;-16.0;147.0;70.0;-411.0;14.0;13.0;-11.0;12.0;108.0;-373.0;10.0;20.0;1.0;-46.0;80.0;-259.0;11.0;16.0;10.0;-103.0;36.0;-159.0RIGHT2;-43.0;-26.0;-1.0;-109.0;239.0;-1106.0;-64.0;32.0;-2.0;415.0;192.0;-1107.0;-60.0;234.0;-20.0;294.0;-188.0;-417.0;47.0;243.0;-32.0;128.0;-251.0;1171.0;116.0;174.0;-25.0;-189.0;-282.0;1822.0;91.0;-33.0;21.0;-295.0;45.0;1963.0;-16.0;-140.0;36.0;63.0;-66.0;952.0;-66.0;-125.0;33.0;33.0;-77.0;628.0;-45.0;-115.0;13.0;136.0;-227.0;209.0;-8.0;-85.0;-2.0;158.0;-167.0;-117.0;21.0;-60.0;-15.0;-14.0;-59.0;-465.0;37.0;-24.0;-20.0;194.0;115.0;-621.0;26.0;20.0;-15.0;-103.0;212.0;-580.0;13.0;23.0;-5.0;-23.0;187.0;-396.0;3.0;33.0;4.0;-205.0;93.0;-235.0;6.0;12.0;5.0;11.0;6.0;-130.0RIGHT2;-50.0;-4.0;-2.0;78.0;145.0;-1480.0;-93.0;112.0;-25.0;851.0;-119.0;-1271.0;-26.0;291.0;-21.0;238.0;-302.0;-67.0;60.0;211.0;-48.0;-241.0;-151.0;1785.0;123.0;105.0;-4.0;-901.0;54.0;2115.0;48.0;-92.0;27.0;-419.0;180.0;1782.0;-5.0;-95.0;46.0;41.0;12.0;620.0;-29.0;-119.0;39.0;59.0;-50.0;441.0;-17.0;-92.0;1.0;85.0;-126.0;53.0;8.0;-69.0;1.0;53.0;-98.0;-229.0;19.0;-41.0;-14.0;23.0;11.0;-437.0;17.0;-6.0;-14.0;61.0;81.0;-481.0;5.0;2.0;-3.0;-110.0;114.0;-417.0;-2.0;10.0;-2.0;-1.0;78.0;-300.0;0.0;-1.0;6.0;-85.0;35.0;-204.0;1.0;4.0;0.0;130.0;14.0;-145.0RIGHT2;10.0;-121.0;-16.0;51.0;406.0;-781.0;-6.0;-102.0;-21.0;457.0;662.0;-2130.0;-156.0;75.0;-11.0;1383.0;177.0;-2346.0;-37.0;323.0;-17.0;80.0;-249.0;-110.0;44.0;272.0;-4.0;-375.0;-543.0;1869.0;213.0;177.0;20.0;-1168.0;-169.0;2492.0;34.0;-121.0;33.0;-90.0;-73.0;1326.0;-22.0;-74.0;33.0;309.0;-126.0;875.0;-49.0;-161.0;14.0;31.0;-238.0;670.0;0.0;-75.0;9.0;-34.0;-201.0;181.0;15.0;-77.0;-7.0;-58.0;-61.0;-228.0;23.0;-24.0;-21.0;155.0;74.0;-449.0;10.0;4.0;-15.0;132.0;159.0;-407.0;3.0;15.0;-7.0;99.0;136.0;-257.0;2.0;10.0;1.0;-50.0;65.0;-152.0;0.0;-9.0;-2.0;39.0;27.0;-145.0RIGHT2;-20.0;-91.0;-33.0;-85.0;871.0;-1833.0;-164.0;47.0;-22.0;1229.0;737.0;-1847.0;-106.0;335.0;11.0;668.0;-377.0;-885.0;8.0;267.0;29.0;256.0;-796.0;1684.0;203.0;209.0;6.0;-1023.0;-752.0;1980.0;105.0;-102.0;29.0;-716.0;61.0;2026.0;4.0;-63.0;11.0;-46.0;-77.0;891.0;-56.0;-170.0;39.0;-35.0;-211.0;957.0;-28.0;-87.0;9.0;-123.0;-292.0;496.0;10.0;-106.0;-7.0;-75.0;-184.0;-137.0;46.0;-48.0;-16.0;81.0;47.0;-556.0;47.0;-19.0;-18.0;351.0;250.0;-718.0;16.0;21.0;-4.0;256.0;313.0;-552.0;-6.0;11.0;-3.0;-18.0;216.0;-466.0;-18.0;2.0;5.0;-89.0;153.0;-380.0;-16.0;-9.0;3.0;127.0;75.0;-302.0RIGHT2;12.0;-102.0;-37.0;-534.0;421.0;-590.0;28.0;-41.0;-42.0;53.0;1161.0;-1714.0;-93.0;0.0;49.0;2714.0;1351.0;-2139.0;-168.0;289.0;-13.0;2434.0;-493.0;-1456.0;-36.0;183.0;16.0;-224.0;-872.0;1440.0;161.0;227.0;-44.0;-1725.0;-1073.0;1919.0;172.0;-99.0;56.0;-1713.0;336.0;1934.0;30.0;-25.0;37.0;344.0;-45.0;410.0;-48.0;-114.0;39.0;-129.0;-115.0;836.0;-21.0;-80.0;7.0;-158.0;-337.0;641.0;2.0;-89.0;6.0;-20.0;-216.0;133.0;26.0;-46.0;-22.0;164.0;-49.0;-313.0;19.0;-27.0;-18.0;194.0;99.0;-465.0;12.0;-12.0;-17.0;263.0;149.0;-440.0;2.0;-2.0;-7.0;89.0;138.0;-343.0;6.0;-1.0;-1.0;77.0;140.0;-276.0RIGHT2;24.0;-149.0;-45.0;-152.0;785.0;-1113.0;-98.0;-117.0;40.0;2172.0;1604.0;-2409.0;-163.0;211.0;36.0;3267.0;-269.0;-1712.0;-61.0;341.0;-37.0;-702.0;-746.0;1047.0;160.0;262.0;-55.0;-1167.0;-1404.0;2101.0;177.0;-33.0;-9.0;-2970.0;437.0;1739.0;46.0;-107.0;77.0;1063.0;207.0;337.0;-56.0;-63.0;34.0;-349.0;110.0;740.0;-33.0;-88.0;42.0;-186.0;-240.0;724.0;1.0;-85.0;26.0;-167.0;-237.0;234.0;27.0;-76.0;-16.0;162.0;-107.0;-300.0;26.0;-24.0;-21.0;-75.0;142.0;-582.0;5.0;-29.0;-25.0;269.0;197.0;-633.0;-18.0;5.0;9.0;81.0;125.0;-422.0;-12.0;-6.0;8.0;418.0;-6.0;-219.0;-3.0;26.0;10.0;-228.0;-64.0;-42.0RIGHT2;-51.0;-49.0;3.0;50.0;416.0;-991.0;-84.0;68.0;25.0;85.0;304.0;-902.0;-65.0;233.0;49.0;50.0;-71.0;-300.0;26.0;208.0;24.0;355.0;-416.0;756.0;103.0;169.0;2.0;-370.0;-341.0;1168.0;72.0;-29.0;-26.0;190.0;-180.0;1367.0;17.0;-56.0;-13.0;-401.0;-62.0;957.0;-32.0;-138.0;-5.0;223.0;-156.0;783.0;-21.0;-104.0;9.0;-66.0;-156.0;407.0;-2.0;-89.0;-1.0;129.0;-76.0;-15.0;15.0;-35.0;-4.0;-21.0;52.0;-299.0;23.0;-11.0;-12.0;7.0;118.0;-415.0;20.0;5.0;-6.0;-2.0;124.0;-353.0;10.0;-2.0;-5.0;-6.0;63.0;-278.0;7.0;11.0;5.0;-104.0;54.0;-183.0;2.0;14.0;-3.0;-32.0;-5.0;-116.0RIGHT2;5.0;-131.0;-62.0;-70.0;1231.0;-1076.0;-81.0;-34.0;54.0;2860.0;1811.0;-1963.0;-193.0;146.0;-19.0;2676.0;282.0;-1336.0;-26.0;179.0;69.0;-137.0;-979.0;1010.0;141.0;168.0;-10.0;-1362.0;-1572.0;1612.0;174.0;77.0;136.0;-1977.0;-458.0;1321.0;50.0;34.0;15.0;995.0;-14.0;-11.0;-43.0;-20.0;-2.0;-411.0;-98.0;615.0;-25.0;-62.0;0.0;-68.0;-287.0;631.0;-13.0;-71.0;-8.0;-174.0;-236.0;293.0;7.0;-51.0;-11.0;-92.0;-82.0;-96.0;8.0;-26.0;-10.0;113.0;60.0;-299.0;7.0;-8.0;-9.0;100.0;122.0;-316.0;4.0;1.0;-12.0;109.0;99.0;-221.0;8.0;1.0;-7.0;-13.0;97.0;-178.0;5.0;2.0;-1.0;-76.0;86.0;-123.0RIGHT2;-11.0;-123.0;-82.0;-701.0;1020.0;-719.0;-99.0;-85.0;-16.0;6278.0;938.0;-2412.0;-88.0;323.0;53.0;1062.0;-233.0;-1233.0;-4.0;261.0;49.0;784.0;-1005.0;939.0;136.0;240.0;58.0;-5667.0;-973.0;2297.0;108.0;-109.0;46.0;725.0;-3.0;1127.0;27.0;-43.0;36.0;161.0;30.0;99.0;-31.0;-50.0;-5.0;114.0;-55.0;604.0;-16.0;-64.0;-4.0;-181.0;-166.0;479.0;-4.0;-68.0;11.0;-1.0;-141.0;177.0;8.0;-44.0;1.0;39.0;-67.0;-126.0;9.0;-38.0;-9.0;190.0;-5.0;-278.0;6.0;-10.0;-13.0;28.0;39.0;-248.0;4.0;-9.0;-8.0;138.0;43.0;-210.0;5.0;11.0;-5.0;-80.0;62.0;-155.0;6.0;-4.0;-2.0;1.0;48.0;-151.0RIGHT2;-6.0;-105.0;-16.0;-164.0;484.0;-645.0;-55.0;-77.0;-2.0;1461.0;1040.0;-1721.0;-78.0;78.0;5.0;1657.0;593.0;-1447.0;-40.0;230.0;17.0;-508.0;-264.0;350.0;75.0;238.0;10.0;212.0;-1005.0;1489.0;102.0;105.0;20.0;-1471.0;-619.0;1595.0;47.0;-55.0;0.0;823.0;-201.0;706.0;-20.0;-112.0;15.0;-922.0;57.0;648.0;-17.0;-106.0;12.0;222.0;-93.0;328.0;4.0;-75.0;9.0;-223.0;-76.0;-77.0;16.0;-26.0;-11.0;181.0;12.0;-338.0;8.0;13.0;-11.0;-24.0;96.0;-355.0;3.0;6.0;-10.0;117.0;82.0;-212.0;0.0;-2.0;-3.0;20.0;54.0;-119.0;3.0;-1.0;2.0;28.0;36.0;-59.0;2.0;4.0;3.0;7.0;52.0;-105.0RIGHT2;-6.0;-78.0;-19.0;-622.0;589.0;-828.0;-65.0;-93.0;17.0;2548.0;771.0;-1913.0;-49.0;265.0;28.0;1503.0;-31.0;-1498.0;-21.0;176.0;-20.0;548.0;-622.0;882.0;88.0;286.0;-20.0;-2785.0;-735.0;2054.0;50.0;-126.0;-15.0;-521.0;-11.0;1661.0;17.0;-54.0;46.0;63.0;73.0;419.0;-24.0;-153.0;29.0;555.0;-22.0;303.0;-1.0;-74.0;7.0;-212.0;-83.0;48.0;20.0;-54.0;-8.0;27.0;-43.0;-224.0;15.0;-5.0;-14.0;-16.0;30.0;-329.0;4.0;-7.0;-6.0;19.0;63.0;-301.0;-4.0;13.0;2.0;-93.0;34.0;-153.0;-3.0;-5.0;1.0;173.0;15.0;-87.0;6.0;22.0;-1.0;31.0;34.0;-73.0;13.0;11.0;-3.0;-4.0;56.0;-155.0RIGHT2;-26.0;-19.0;-20.0;-143.0;359.0;-1650.0;-78.0;107.0;30.0;-265.0;273.0;-1483.0;-64.0;303.0;3.0;-613.0;-139.0;180.0;48.0;186.0;37.0;329.0;-344.0;1575.0;95.0;77.0;-31.0;103.0;-229.0;1878.0;49.0;-133.0;-6.0;313.0;-51.0;1047.0;-29.0;-92.0;1.0;-352.0;63.0;595.0;-27.0;-115.0;19.0;1.0;-105.0;319.0;3.0;-82.0;4.0;-196.0;-99.0;-79.0;19.0;-56.0;-9.0;1.0;-33.0;-398.0;12.0;-5.0;-18.0;184.0;36.0;-441.0;5.0;4.0;-8.0;171.0;69.0;-343.0;5.0;27.0;-3.0;61.0;70.0;-226.0;7.0;12.0;1.0;-11.0;63.0;-159.0;4.0;17.0;-2.0;-83.0;45.0;-58.0;2.0;-4.0;-5.0;14.0;-3.0;18.0RIGHT2;13.0;-75.0;-41.0;-342.0;720.0;-1206.0;-113.0;-72.0;2.0;2294.0;796.0;-1713.0;-108.0;268.0;6.0;1083.0;-231.0;-611.0;-36.0;151.0;47.0;383.0;-648.0;711.0;132.0;271.0;11.0;-1932.0;-675.0;1543.0;98.0;-85.0;29.0;-582.0;42.0;1125.0;2.0;-6.0;7.0;-143.0;-79.0;1006.0;-36.0;-179.0;6.0;460.0;-220.0;772.0;-13.0;-103.0;5.0;-144.0;-109.0;288.0;11.0;-88.0;-2.0;153.0;-40.0;-202.0;17.0;-19.0;-10.0;-60.0;63.0;-449.0;17.0;-5.0;-7.0;185.0;89.0;-425.0;13.0;21.0;-9.0;24.0;77.0;-275.0;11.0;14.0;2.0;-33.0;71.0;-174.0;1.0;14.0;-1.0;-91.0;36.0;-129.0;1.0;5.0;0.0;-34.0;14.0;-81.0RIGHT2;-59.0;146.0;21.0;-382.0;94.0;-248.0;6.0;259.0;14.0;439.0;-261.0;843.0;88.0;168.0;4.0;134.0;-298.0;1388.0;62.0;6.0;-18.0;191.0;-205.0;1288.0;5.0;-138.0;-5.0;-62.0;-48.0;989.0;-18.0;-127.0;7.0;-8.0;-51.0;548.0;-9.0;-96.0;14.0;-200.0;-17.0;37.0;4.0;-48.0;-3.0;47.0;-27.0;-237.0;4.0;-16.0;-9.0;-116.0;-36.0;-279.0;11.0;-9.0;-10.0;77.0;-38.0;-225.0;12.0;7.0;-4.0;-145.0;-9.0;-217.0;14.0;6.0;-4.0;72.0;18.0;-180.0;6.0;7.0;-11.0;-35.0;20.0;-142.0;5.0;0.0;-2.0;-8.0;33.0;-88.0;3.0;3.0;-6.0;31.0;26.0;-72.0;0.0;4.0;1.0;13.0;45.0;-42.0RIGHT2;-60.0;-40.0;4.0;-210.0;196.0;-1110.0;-67.0;67.0;23.0;-271.0;161.0;-929.0;-44.0;247.0;32.0;-314.0;-73.0;-98.0;56.0;200.0;10.0;399.0;-245.0;852.0;83.0;131.0;-42.0;185.0;-229.0;1172.0;58.0;-45.0;-46.0;465.0;-19.0;1259.0;-2.0;-84.0;-12.0;-164.0;107.0;869.0;-25.0;-119.0;24.0;95.0;57.0;558.0;-13.0;-92.0;20.0;-164.0;-19.0;137.0;-3.0;-66.0;13.0;-63.0;-36.0;-135.0;1.0;-22.0;-3.0;23.0;0.0;-271.0;1.0;0.0;3.0;-9.0;-2.0;-229.0;9.0;10.0;-2.0;46.0;-24.0;-202.0;9.0;-4.0;-5.0;-29.0;-41.0;-152.0;9.0;0.0;-6.0;-39.0;-13.0;-182.0;-3.0;-7.0;-6.0;-126.0;6.0;-166.0RIGHT2;-11.0;182.0;30.0;6.0;-137.0;247.0;54.0;182.0;1.0;202.0;-312.0;1010.0;72.0;13.0;-1.0;31.0;-147.0;1234.0;21.0;-26.0;-26.0;72.0;-118.0;918.0;-18.0;-112.0;6.0;-350.0;22.0;603.0;-25.0;-73.0;12.0;35.0;-72.0;383.0;-9.0;-61.0;19.0;-181.0;-98.0;133.0;2.0;-49.0;4.0;118.0;-88.0;-110.0;10.0;-16.0;-10.0;13.0;-39.0;-218.0;10.0;-18.0;-15.0;64.0;-17.0;-244.0;13.0;7.0;-12.0;31.0;34.0;-218.0;10.0;-2.0;-6.0;-54.0;76.0;-195.0;4.0;13.0;0.0;-118.0;91.0;-147.0;2.0;-1.0;-3.0;92.0;56.0;-109.0;5.0;8.0;-2.0;37.0;16.0;-84.0;5.0;-3.0;-2.0;76.0;26.0;-98.0RIGHT2;-34.0;-54.0;139.0;-16.0;-913.0;-269.0;-87.0;5.0;77.0;93.0;-1575.0;-389.0;-94.0;50.0;-122.0;31.0;-1493.0;-356.0;-11.0;76.0;-284.0;61.0;23.0;132.0;95.0;7.0;-256.0;-239.0;1476.0;538.0;126.0;-62.0;-80.0;308.0;1818.0;396.0;39.0;-21.0;99.0;-49.0;1412.0;236.0;-20.0;-5.0;162.0;243.0;666.0;-66.0;-19.0;15.0;122.0;75.0;234.0;-15.0;0.0;-2.0;67.0;6.0;-104.0;-65.0;13.0;-4.0;26.0;-141.0;-270.0;-142.0;10.0;-3.0;3.0;-73.0;-300.0;-124.0;-3.0;-1.0;1.0;-23.0;-221.0;-3.0;-2.0;-10.0;5.0;116.0;-172.0;72.0;2.0;-4.0;4.0;-119.0;-107.0;55.0;9.0;0.0;-10.0;-53.0;-128.0;-7.0RIGHT2;-61.0;-1.0;14.0;570.0;-1463.0;-483.0;-57.0;27.0;-147.0;173.0;-1102.0;-263.0;-1.0;72.0;-231.0;514.0;580.0;347.0;68.0;-4.0;-130.0;-866.0;1615.0;681.0;60.0;-16.0;29.0;131.0;1564.0;445.0;7.0;-29.0;120.0;-181.0;600.0;98.0;-18.0;18.0;94.0;428.0;181.0;-154.0;-13.0;4.0;67.0;140.0;33.0;15.0;3.0;-10.0;36.0;-19.0;-114.0;22.0;15.0;-9.0;12.0;-100.0;-217.0;-74.0;9.0;-13.0;-1.0;-10.0;-240.0;-101.0;8.0;8.0;-9.0;-39.0;-190.0;-64.0;-2.0;-7.0;-10.0;53.0;-82.0;19.0;4.0;-2.0;-14.0;34.0;-31.0;12.0;2.0;-6.0;-10.0;23.0;8.0;-10.0;1.0;11.0;-5.0;-82.0;22.0;-21.0RIGHT2;-11.0;4.0;35.0;-653.0;-1432.0;-489.0;-45.0;6.0;-149.0;2544.0;-1726.0;-741.0;-22.0;4.0;-250.0;261.0;217.0;-6.0;42.0;-4.0;-171.0;209.0;1571.0;584.0;82.0;10.0;26.0;-2508.0;2092.0;778.0;45.0;-3.0;135.0;544.0;611.0;188.0;-18.0;-2.0;98.0;624.0;178.0;-151.0;-16.0;-6.0;62.0;206.0;37.0;-50.0;-6.0;-1.0;34.0;62.0;-69.0;9.0;6.0;-8.0;21.0;-84.0;-135.0;4.0;7.0;-2.0;3.0;-80.0;-225.0;-46.0;4.0;-4.0;-4.0;-97.0;-192.0;-20.0;2.0;-4.0;-7.0;-111.0;-119.0;6.0;4.0;-12.0;-7.0;76.0;-58.0;-28.0;1.0;-2.0;-5.0;-79.0;-57.0;-34.0;5.0;6.0;2.0;15.0;-46.0;-67.0RIGHT2;-6.0;-100.0;7.0;-466.0;-1008.0;-1065.0;-15.0;48.0;-180.0;1071.0;-1246.0;-209.0;-2.0;-27.0;-253.0;799.0;581.0;444.0;19.0;109.0;-147.0;265.0;1206.0;1151.0;23.0;-22.0;33.0;-867.0;1954.0;366.0;2.0;37.0;132.0;52.0;679.0;36.0;-24.0;18.0;101.0;259.0;346.0;-4.0;-8.0;0.0;78.0;-194.0;90.0;164.0;4.0;-10.0;48.0;-204.0;-159.0;115.0;21.0;-25.0;31.0;-209.0;-304.0;31.0;18.0;-20.0;1.0;32.0;-361.0;-126.0;17.0;-22.0;-10.0;204.0;-300.0;-173.0;3.0;-10.0;-12.0;151.0;-232.0;-134.0;3.0;2.0;-6.0;189.0;-160.0;-78.0;-4.0;7.0;3.0;43.0;-96.0;-53.0;-3.0;6.0;7.0;-139.0;-53.0;-25.0RIGHT2;46.0;48.0;-210.0;367.0;664.0;301.0;63.0;6.0;-85.0;-38.0;1469.0;471.0;36.0;10.0;99.0;193.0;1335.0;447.0;-33.0;-24.0;157.0;270.0;462.0;77.0;-29.0;12.0;96.0;-6.0;-30.0;53.0;-5.0;-14.0;28.0;-18.0;-177.0;75.0;13.0;-18.0;-2.0;-96.0;-203.0;-11.0;10.0;-16.0;-13.0;-9.0;-194.0;-51.0;5.0;-2.0;-7.0;-21.0;-148.0;-59.0;-1.0;5.0;-5.0;11.0;-96.0;0.0;-1.0;-4.0;-3.0;-65.0;-58.0;-14.0;4.0;-8.0;-6.0;-93.0;-42.0;-51.0;3.0;-3.0;-3.0;-82.0;-7.0;-57.0;-1.0;0.0;-2.0;33.0;17.0;2.0;-5.0;1.0;6.0;26.0;36.0;40.0;-3.0;-2.0;5.0;10.0;-11.0;11.0RIGHT2;15.0;2.0;-210.0;-9.0;1064.0;541.0;63.0;23.0;-70.0;-625.0;2050.0;854.0;88.0;-63.0;76.0;1036.0;1855.0;572.0;-1.0;18.0;151.0;175.0;238.0;-71.0;-31.0;10.0;72.0;375.0;-212.0;-256.0;-24.0;-16.0;34.0;-397.0;-152.0;10.0;2.0;-7.0;6.0;-67.0;-56.0;84.0;17.0;-16.0;8.0;-236.0;-86.0;41.0;16.0;-2.0;-7.0;50.0;-216.0;-87.0;4.0;-2.0;-2.0;9.0;-248.0;-111.0;-3.0;-2.0;-4.0;-55.0;-208.0;-90.0;-3.0;0.0;1.0;-95.0;-118.0;-44.0;1.0;-8.0;-5.0;62.0;-52.0;-16.0;4.0;-1.0;-7.0;14.0;16.0;11.0;-1.0;1.0;-5.0;24.0;40.0;-2.0;4.0;4.0;2.0;-84.0;-5.0;6.0RIGHT2;-110.0;-38.0;-94.0;966.0;-1509.0;-802.0;42.0;102.0;-97.0;2205.0;-868.0;133.0;-18.0;80.0;-242.0;137.0;474.0;541.0;123.0;70.0;-47.0;-1490.0;1644.0;1137.0;-27.0;-78.0;-31.0;-1814.0;1374.0;215.0;19.0;-30.0;56.0;157.0;661.0;229.0;-12.0;1.0;61.0;776.0;430.0;-114.0;-19.0;8.0;57.0;-33.0;350.0;98.0;-10.0;-11.0;62.0;156.0;172.0;117.0;7.0;-7.0;50.0;-39.0;-107.0;18.0;11.0;-16.0;34.0;65.0;-328.0;-102.0;6.0;-5.0;13.0;-55.0;-331.0;-142.0;4.0;-6.0;4.0;25.0;-256.0;-139.0;7.0;1.0;-4.0;-19.0;-164.0;-85.0;7.0;1.0;-9.0;-41.0;-128.0;-44.0;2.0;-1.0;-3.0;-2.0;-95.0;-8.0RIGHT2;-37.0;-22.0;-17.0;456.0;-1381.0;-801.0;-31.0;16.0;-54.0;1105.0;-1160.0;-291.0;-18.0;45.0;-215.0;924.0;125.0;64.0;50.0;61.0;-104.0;-617.0;1132.0;689.0;39.0;19.0;-95.0;-1071.0;1435.0;481.0;14.0;-32.0;76.0;-361.0;895.0;330.0;-20.0;-15.0;72.0;210.0;537.0;174.0;-21.0;-3.0;70.0;217.0;281.0;85.0;-6.0;-8.0;57.0;-67.0;81.0;87.0;10.0;-6.0;36.0;-63.0;-191.0;3.0;15.0;-7.0;16.0;-74.0;-332.0;-101.0;10.0;-8.0;2.0;24.0;-343.0;-143.0;5.0;-9.0;7.0;8.0;-316.0;-129.0;4.0;-4.0;-6.0;17.0;-224.0;-102.0;1.0;4.0;-4.0;34.0;-169.0;-65.0;2.0;4.0;-15.0;40.0;-70.0;-20.0RIGHT2;-25.0;-39.0;51.0;-289.0;-1042.0;-797.0;-67.0;-4.0;-21.0;746.0;-1252.0;-816.0;-72.0;75.0;-179.0;608.0;-699.0;-361.0;25.0;88.0;-174.0;476.0;650.0;655.0;93.0;42.0;-133.0;-407.0;1392.0;801.0;81.0;-17.0;27.0;-268.0;1518.0;808.0;-4.0;-50.0;68.0;45.0;791.0;179.0;-30.0;-5.0;118.0;19.0;428.0;155.0;-20.0;-5.0;70.0;20.0;119.0;108.0;6.0;1.0;50.0;-95.0;-173.0;-10.0;16.0;-13.0;16.0;-103.0;-356.0;-102.0;17.0;-12.0;-1.0;-9.0;-366.0;-168.0;10.0;-4.0;-10.0;-13.0;-289.0;-131.0;3.0;-6.0;-15.0;57.0;-168.0;-76.0;0.0;-1.0;-15.0;-14.0;-66.0;-48.0;0.0;-1.0;-12.0;18.0;10.0;-18.0RIGHT2;-15.0;80.0;-128.0;-158.0;534.0;366.0;56.0;66.0;-102.0;-402.0;1160.0;626.0;101.0;7.0;-105.0;493.0;1414.0;655.0;33.0;-45.0;29.0;247.0;748.0;169.0;-36.0;-44.0;90.0;193.0;583.0;215.0;-26.0;0.0;79.0;9.0;360.0;131.0;-5.0;-9.0;64.0;-19.0;12.0;73.0;6.0;-14.0;34.0;-93.0;-223.0;-27.0;9.0;-21.0;13.0;-72.0;-279.0;-48.0;10.0;-5.0;-5.0;-123.0;-245.0;-88.0;10.0;-4.0;-3.0;-46.0;-183.0;-67.0;9.0;-4.0;-3.0;68.0;-174.0;-98.0;6.0;-13.0;3.0;67.0;-163.0;-100.0;3.0;1.0;-7.0;-11.0;-119.0;-92.0;2.0;5.0;-12.0;-14.0;-77.0;-70.0;1.0;6.0;-8.0;17.0;-27.0;-39.0RIGHT2;-44.0;-15.0;72.0;-217.0;-1135.0;-708.0;-76.0;16.0;-48.0;620.0;-1533.0;-796.0;-53.0;80.0;-186.0;-263.0;-769.0;-504.0;49.0;111.0;-226.0;163.0;761.0;746.0;109.0;21.0;-138.0;-654.0;1639.0;904.0;86.0;-26.0;32.0;483.0;1525.0;809.0;-9.0;-75.0;104.0;64.0;766.0;55.0;-23.0;-15.0;122.0;79.0;419.0;63.0;-8.0;-7.0;75.0;25.0;146.0;88.0;4.0;-11.0;47.0;-2.0;-99.0;-7.0;6.0;-5.0;8.0;20.0;-168.0;-93.0;8.0;-4.0;3.0;7.0;-195.0;-114.0;0.0;-9.0;4.0;-24.0;-148.0;-54.0;0.0;-5.0;6.0;56.0;-180.0;-39.0;-1.0;-10.0;3.0;5.0;-153.0;-49.0;3.0;7.0;-5.0;-65.0;-121.0;-52.0RIGHT2;53.0;81.0;-205.0;10.0;896.0;737.0;99.0;20.0;-122.0;-645.0;1580.0;858.0;53.0;-33.0;54.0;102.0;1370.0;560.0;-31.0;-43.0;132.0;-30.0;709.0;206.0;-39.0;-23.0;126.0;283.0;252.0;70.0;-12.0;-12.0;75.0;48.0;-17.0;18.0;4.0;-9.0;24.0;94.0;-191.0;-55.0;11.0;-5.0;5.0;-1.0;-254.0;-108.0;5.0;-3.0;-5.0;-51.0;-213.0;-95.0;4.0;-10.0;-3.0;-6.0;-169.0;-56.0;5.0;-6.0;-4.0;-94.0;-123.0;-51.0;5.0;-3.0;-6.0;71.0;-142.0;-83.0;5.0;2.0;0.0;-77.0;-147.0;-105.0;2.0;2.0;-1.0;-49.0;-128.0;-76.0;0.0;8.0;-2.0;-169.0;-98.0;-39.0;-1.0;0.0;-5.0;-42.0;-67.0;23.0RIGHT2;-3.0;117.0;-237.0;1427.0;-16.0;165.0;47.0;108.0;-129.0;-36.0;1186.0;1314.0;99.0;9.0;-24.0;-803.0;2035.0;1148.0;-19.0;-41.0;136.0;-488.0;1007.0;719.0;-22.0;-37.0;114.0;320.0;223.0;254.0;-18.0;-23.0;71.0;176.0;-120.0;72.0;-10.0;-26.0;29.0;-144.0;-180.0;4.0;10.0;-27.0;11.0;-176.0;-250.0;-60.0;19.0;-21.0;-6.0;-97.0;-315.0;-146.0;22.0;-5.0;-9.0;-61.0;-296.0;-211.0;14.0;5.0;-13.0;8.0;-233.0;-199.0;2.0;6.0;-4.0;-22.0;-143.0;-129.0;0.0;5.0;-6.0;80.0;-81.0;-33.0;2.0;-1.0;-2.0;1.0;-53.0;-1.0;4.0;-1.0;-9.0;16.0;-18.0;-2.0;0.0;-1.0;-9.0;4.0;18.0;-11.0RIGHT2;-40.0;-56.0;38.0;398.0;-1569.0;-1197.0;-68.0;52.0;-52.0;965.0;-1712.0;-852.0;-67.0;77.0;-231.0;685.0;-155.0;81.0;73.0;107.0;-186.0;-321.0;1203.0;1092.0;115.0;3.0;-86.0;-920.0;1834.0;955.0;65.0;-14.0;62.0;-162.0;1054.0;616.0;-15.0;-42.0;90.0;394.0;601.0;117.0;-42.0;-17.0;87.0;471.0;334.0;94.0;-28.0;-4.0;67.0;88.0;129.0;88.0;-4.0;-9.0;53.0;-89.0;-69.0;2.0;7.0;-10.0;25.0;-196.0;-244.0;-90.0;10.0;-15.0;7.0;-157.0;-311.0;-143.0;12.0;-13.0;-12.0;-79.0;-289.0;-165.0;12.0;-7.0;-13.0;-16.0;-215.0;-146.0;14.0;13.0;-12.0;-16.0;-104.0;-71.0;1.0;9.0;-6.0;-6.0;-90.0;7.0RIGHT2;5.0;109.0;-203.0;3.0;11.0;376.0;85.0;63.0;-163.0;-523.0;986.0;925.0;106.0;-13.0;-114.0;-338.0;1448.0;769.0;38.0;-47.0;45.0;56.0;1184.0;470.0;-18.0;-37.0;78.0;118.0;807.0;185.0;-30.0;-21.0;104.0;281.0;516.0;169.0;-21.0;-7.0;73.0;95.0;189.0;87.0;-3.0;-18.0;56.0;227.0;-66.0;-30.0;3.0;-4.0;23.0;90.0;-194.0;-87.0;11.0;1.0;13.0;26.0;-217.0;-93.0;9.0;9.0;-3.0;-121.0;-237.0;-95.0;15.0;-10.0;-1.0;-175.0;-242.0;-78.0;13.0;-12.0;1.0;-368.0;-248.0;-61.0;11.0;-7.0;-1.0;-191.0;-249.0;-91.0;7.0;-2.0;-7.0;-78.0;-195.0;-73.0;5.0;3.0;-20.0;157.0;-142.0;-66.0RIGHT2;41.0;51.0;-229.0;15.0;620.0;317.0;69.0;47.0;-126.0;-1095.0;1585.0;774.0;30.0;-28.0;60.0;-934.0;1591.0;574.0;-26.0;-11.0;142.0;302.0;683.0;317.0;-34.0;-16.0;143.0;589.0;62.0;-28.0;-14.0;-11.0;71.0;-94.0;-78.0;64.0;10.0;-14.0;30.0;-194.0;-182.0;9.0;13.0;-29.0;15.0;-111.0;-245.0;-20.0;18.0;-13.0;-7.0;-89.0;-276.0;-104.0;10.0;-18.0;0.0;70.0;-269.0;-168.0;6.0;-2.0;-7.0;-51.0;-223.0;-199.0;-1.0;-3.0;-3.0;125.0;-190.0;-147.0;0.0;6.0;-5.0;57.0;-104.0;-72.0;-2.0;8.0;-3.0;41.0;-41.0;-6.0;2.0;8.0;-5.0;14.0;-21.0;-6.0;2.0;8.0;0.0;35.0;-24.0;-21.0RIGHT2;-62.0;-69.0;14.0;-14.0;-986.0;-633.0;-55.0;9.0;-14.0;785.0;-1626.0;-874.0;-68.0;74.0;-226.0;-532.0;-890.0;-607.0;60.0;132.0;-146.0;-268.0;655.0;651.0;83.0;37.0;-131.0;-989.0;1678.0;889.0;94.0;-18.0;47.0;729.0;1437.0;842.0;-3.0;-39.0;73.0;471.0;794.0;125.0;-35.0;-28.0;99.0;358.0;513.0;189.0;-32.0;-28.0;68.0;294.0;242.0;26.0;-7.0;-16.0;56.0;-148.0;-64.0;-105.0;9.0;-6.0;45.0;-140.0;-252.0;-160.0;9.0;1.0;15.0;-403.0;-319.0;-129.0;10.0;-6.0;4.0;-168.0;-338.0;-129.0;9.0;-14.0;-26.0;-91.0;-312.0;-166.0;8.0;-3.0;-12.0;196.0;-230.0;-149.0;5.0;14.0;-16.0;70.0;-101.0;-57.0RIGHT2;17.0;101.0;-268.0;-55.0;1170.0;1425.0;143.0;52.0;-105.0;-2036.0;2668.0;1719.0;147.0;3.0;132.0;-946.0;2140.0;950.0;9.0;-11.0;141.0;681.0;549.0;-31.0;-31.0;-4.0;86.0;427.0;243.0;-18.0;-42.0;-5.0;59.0;399.0;182.0;43.0;-20.0;-12.0;51.0;232.0;51.0;98.0;0.0;-3.0;40.0;-75.0;-95.0;-4.0;5.0;-13.0;17.0;22.0;-250.0;-96.0;7.0;-12.0;7.0;-87.0;-290.0;-206.0;-4.0;-2.0;0.0;-92.0;-282.0;-241.0;6.0;7.0;10.0;-131.0;-206.0;-124.0;10.0;9.0;-2.0;-118.0;-193.0;-51.0;20.0;5.0;-10.0;36.0;-133.0;17.0;0.0;-16.0;-20.0;-14.0;-128.0;-32.0;4.0;2.0;-14.0;-5.0;-50.0;-52.0RIGHT2;6.0;32.0;-244.0;287.0;-254.0;1.0;60.0;55.0;-114.0;-455.0;1479.0;557.0;14.0;5.0;-17.0;-3036.0;1904.0;496.0;24.0;31.0;71.0;-163.0;1376.0;303.0;1.0;9.0;98.0;245.0;553.0;116.0;-21.0;12.0;71.0;124.0;241.0;102.0;-27.0;-13.0;69.0;404.0;87.0;162.0;-14.0;-3.0;58.0;157.0;8.0;157.0;2.0;-9.0;34.0;214.0;-171.0;22.0;13.0;-7.0;22.0;-6.0;-271.0;-129.0;13.0;-12.0;1.0;28.0;-342.0;-223.0;7.0;-6.0;0.0;-52.0;-323.0;-213.0;0.0;-5.0;-9.0;6.0;-257.0;-157.0;-3.0;0.0;-4.0;-21.0;-166.0;-87.0;2.0;5.0;-15.0;-16.0;-55.0;-24.0;-1.0;3.0;-3.0;-41.0;7.0;37.0RIGHT2;27.0;89.0;-174.0;724.0;558.0;463.0;77.0;49.0;-103.0;-185.0;1561.0;1097.0;89.0;-17.0;18.0;-105.0;1686.0;1022.0;-4.0;-39.0;89.0;-170.0;823.0;452.0;-32.0;-25.0;84.0;328.0;356.0;141.0;-32.0;-15.0;52.0;207.0;185.0;92.0;-12.0;-6.0;37.0;28.0;68.0;28.0;0.0;-1.0;23.0;-76.0;-112.0;-39.0;2.0;-9.0;14.0;-54.0;-170.0;-63.0;-2.0;-22.0;11.0;-60.0;-230.0;-55.0;7.0;-12.0;8.0;-150.0;-214.0;-85.0;12.0;-2.0;8.0;-250.0;-241.0;-108.0;9.0;-14.0;0.0;-202.0;-267.0;-100.0;6.0;-4.0;-17.0;-62.0;-269.0;-155.0;4.0;-6.0;-17.0;54.0;-193.0;-142.0;5.0;18.0;-14.0;227.0;-95.0;-114.0RIGHT2;15.0;59.0;-202.0;207.0;507.0;470.0;91.0;28.0;-114.0;-497.0;1379.0;735.0;86.0;-32.0;-36.0;93.0;1495.0;562.0;21.0;-24.0;88.0;176.0;818.0;90.0;-30.0;-3.0;99.0;177.0;543.0;127.0;-24.0;4.0;78.0;23.0;326.0;167.0;-3.0;-10.0;58.0;120.0;51.0;96.0;4.0;-5.0;24.0;-44.0;-139.0;-30.0;6.0;-6.0;3.0;73.0;-199.0;-128.0;5.0;0.0;-1.0;-155.0;-173.0;-116.0;-3.0;3.0;4.0;-98.0;-85.0;21.0;-5.0;-3.0;2.0;-32.0;-67.0;60.0;-4.0;-6.0;-1.0;-9.0;-64.0;6.0;7.0;-8.0;-5.0;7.0;-150.0;-99.0;11.0;-5.0;-2.0;30.0;-174.0;-161.0;8.0;1.0;-3.0;13.0;-190.0;-161.0RIGHT2;-7.0;-36.0;-37.0;651.0;-1280.0;-387.0;11.0;68.0;23.0;1229.0;-1692.0;-356.0;-58.0;2.0;-293.0;-1147.0;583.0;-47.0;46.0;40.0;-56.0;-1591.0;1880.0;662.0;33.0;-70.0;-67.0;-1383.0;2077.0;376.0;81.0;0.0;189.0;1291.0;54.0;1.0;-32.0;12.0;90.0;861.0;-370.0;-268.0;-37.0;1.0;37.0;-67.0;-220.0;-15.0;-4.0;-9.0;-1.0;11.0;-162.0;-16.0;15.0;-16.0;-2.0;-122.0;-145.0;-30.0;11.0;-4.0;-11.0;107.0;-140.0;-83.0;1.0;6.0;-5.0;21.0;-120.0;-71.0;-4.0;3.0;-10.0;116.0;-98.0;-42.0;2.0;2.0;5.0;-26.0;-52.0;-23.0;2.0;-2.0;-9.0;11.0;-23.0;-24.0;0.0;0.0;3.0;-23.0;-7.0;-26.0RIGHT2;-48.0;-27.0;-14.0;1237.0;-1685.0;-895.0;-59.0;71.0;-234.0;-1375.0;-379.0;-182.0;-4.0;142.0;-225.0;-219.0;1153.0;361.0;81.0;19.0;-1.0;-1200.0;1813.0;984.0;85.0;-77.0;184.0;1352.0;455.0;198.0;-17.0;-19.0;84.0;355.0;-101.0;-267.0;-33.0;10.0;18.0;-139.0;38.0;21.0;-8.0;-15.0;27.0;95.0;-51.0;19.0;11.0;-7.0;5.0;39.0;-88.0;-44.0;1.0;-4.0;0.0;11.0;-97.0;-66.0;-7.0;8.0;-9.0;-82.0;-21.0;-7.0;-3.0;-5.0;-3.0;38.0;-42.0;26.0;6.0;0.0;-3.0;63.0;-14.0;5.0;7.0;3.0;-2.0;45.0;-54.0;-41.0;0.0;3.0;0.0;16.0;-36.0;-69.0;-5.0;6.0;-5.0;-15.0;-33.0;-57.0RIGHT2;-67.0;-16.0;94.0;-230.0;-1132.0;-529.0;-102.0;-9.0;-29.0;258.0;-1698.0;-678.0;-99.0;72.0;-143.0;255.0;-1430.0;-426.0;-20.0;20.0;-236.0;804.0;-165.0;-6.0;101.0;47.0;-175.0;-137.0;1084.0;590.0;138.0;-43.0;-70.0;-86.0;1572.0;574.0;91.0;7.0;27.0;-512.0;1137.0;392.0;30.0;-25.0;44.0;13.0;787.0;12.0;9.0;11.0;42.0;-9.0;617.0;14.0;-4.0;15.0;49.0;-111.0;526.0;128.0;-9.0;4.0;47.0;-161.0;330.0;134.0;-11.0;-3.0;38.0;-98.0;197.0;88.0;-8.0;-7.0;21.0;-170.0;161.0;72.0;-6.0;-7.0;23.0;4.0;119.0;59.0;-5.0;-4.0;13.0;86.0;82.0;68.0;-4.0;-1.0;22.0;83.0;80.0;78.0RIGHT2;9.0;0.0;-16.0;-1185.0;772.0;318.0;14.0;-3.0;51.0;-150.0;113.0;105.0;9.0;-10.0;32.0;180.0;-42.0;-99.0;-5.0;-1.0;10.0;51.0;-81.0;6.0;-3.0;-9.0;-2.0;50.0;2.0;29.0;1.0;-2.0;6.0;77.0;-24.0;66.0;5.0;-6.0;7.0;199.0;-50.0;-20.0;4.0;-1.0;5.0;-25.0;-59.0;-37.0;0.0;-2.0;2.0;47.0;-66.0;-76.0;-1.0;1.0;2.0;-103.0;-49.0;-46.0;0.0;1.0;-1.0;74.0;-32.0;-21.0;1.0;-1.0;0.0;21.0;-11.0;-6.0;-1.0;0.0;-1.0;2.0;4.0;-7.0;-1.0;1.0;-1.0;9.0;9.0;-1.0;-1.0;0.0;0.0;-13.0;13.0;12.0;0.0;1.0;1.0;60.0;9.0;8.0RIGHT2;23.0;32.0;-104.0;417.0;380.0;188.0;60.0;24.0;-104.0;110.0;974.0;477.0;55.0;-2.0;-43.0;99.0;1317.0;535.0;14.0;-7.0;48.0;-150.0;1073.0;490.0;-24.0;-22.0;97.0;37.0;672.0;291.0;-26.0;-13.0;82.0;67.0;297.0;202.0;-11.0;-20.0;52.0;-5.0;32.0;73.0;1.0;-16.0;29.0;-1.0;-127.0;-42.0;9.0;-15.0;17.0;-40.0;-197.0;-113.0;7.0;-15.0;5.0;30.0;-229.0;-125.0;7.0;-4.0;3.0;-72.0;-188.0;-125.0;4.0;-2.0;-7.0;-24.0;-162.0;-99.0;2.0;0.0;-3.0;-7.0;-131.0;-81.0;5.0;9.0;3.0;-100.0;-115.0;-54.0;1.0;2.0;5.0;-52.0;-135.0;-19.0;3.0;7.0;2.0;-49.0;-148.0;6.0RIGHT2;15.0;20.0;-118.0;-147.0;178.0;-66.0;44.0;25.0;-113.0;186.0;665.0;104.0;58.0;12.0;-76.0;10.0;1014.0;294.0;46.0;7.0;-17.0;51.0;1135.0;361.0;14.0;-6.0;52.0;-140.0;1006.0;329.0;-16.0;-6.0;80.0;-63.0;708.0;252.0;-28.0;-12.0;76.0;198.0;411.0;174.0;-21.0;-14.0;55.0;168.0;189.0;100.0;-6.0;-9.0;43.0;266.0;-3.0;-30.0;6.0;-1.0;30.0;34.0;-173.0;-112.0;9.0;-3.0;27.0;-43.0;-292.0;-142.0;12.0;3.0;10.0;-182.0;-314.0;-113.0;8.0;-9.0;-6.0;-106.0;-270.0;-42.0;8.0;-6.0;-13.0;-145.0;-193.0;-13.0;2.0;-11.0;-10.0;-11.0;-162.0;-14.0;-2.0;-2.0;1.0;-39.0;-151.0;-70.0RIGHT2;-30.0;-7.0;104.0;-577.0;-466.0;-210.0;-49.0;-48.0;79.0;441.0;-1675.0;-781.0;-105.0;72.0;-236.0;847.0;-2232.0;-779.0;41.0;85.0;-299.0;-335.0;716.0;340.0;76.0;29.0;-224.0;-766.0;2388.0;1040.0;159.0;-82.0;123.0;-450.0;2751.0;560.0;-26.0;-93.0;225.0;871.0;259.0;-49.0;-49.0;18.0;164.0;402.0;-455.0;-400.0;-26.0;12.0;48.0;149.0;-453.0;-169.0;12.0;5.0;-1.0;-101.0;-268.0;-62.0;23.0;-25.0;-25.0;-21.0;-264.0;2.0;14.0;-10.0;-7.0;-83.0;-271.0;-82.0;-1.0;10.0;-13.0;43.0;-220.0;-98.0;-2.0;13.0;-7.0;-175.0;-115.0;-10.0;4.0;5.0;-13.0;-8.0;-58.0;45.0;5.0;-4.0;-7.0;3.0;-36.0;57.0RIGHT2;-16.0;30.0;-174.0;463.0;-175.0;-183.0;55.0;56.0;-152.0;235.0;776.0;474.0;103.0;-2.0;-97.0;10.0;1359.0;688.0;83.0;21.0;-27.0;-193.0;1351.0;688.0;31.0;-34.0;40.0;-406.0;1115.0;333.0;-17.0;-9.0;71.0;109.0;902.0;255.0;-40.0;-24.0;88.0;194.0;677.0;222.0;-30.0;1.0;81.0;307.0;353.0;138.0;-12.0;-1.0;72.0;261.0;32.0;9.0;8.0;12.0;51.0;-45.0;-260.0;-118.0;13.0;-19.0;29.0;-121.0;-405.0;-171.0;23.0;-13.0;12.0;-193.0;-424.0;-149.0;24.0;-18.0;2.0;-135.0;-375.0;-98.0;26.0;-3.0;-7.0;-147.0;-327.0;-109.0;12.0;-2.0;-15.0;-148.0;-272.0;-62.0;8.0;-1.0;-18.0;52.0;-212.0;-38.0RIGHT2;-47.0;-84.0;143.0;-357.0;-959.0;-535.0;-134.0;-51.0;82.0;852.0;-2350.0;-1269.0;-139.0;99.0;-180.0;-32.0;-2202.0;-1101.0;-54.0;109.0;-339.0;1035.0;-33.0;573.0;159.0;39.0;-324.0;-999.0;2171.0;1241.0;197.0;-79.0;-65.0;137.0;2439.0;776.0;88.0;-12.0;128.0;-846.0;1439.0;-103.0;-28.0;33.0;175.0;-16.0;701.0;-4.0;-48.0;15.0;133.0;223.0;374.0;272.0;-23.0;-4.0;86.0;72.0;120.0;272.0;-10.0;-23.0;32.0;225.0;-136.0;14.0;10.0;-12.0;6.0;110.0;-222.0;-167.0;10.0;-4.0;-3.0;142.0;-237.0;-163.0;11.0;-1.0;12.0;13.0;-185.0;-42.0;6.0;-3.0;19.0;-40.0;-170.0;1.0;1.0;-3.0;-2.0;-162.0;-271.0;16.0RIGHT2;-57.0;-22.0;69.0;-766.0;-1193.0;-549.0;-38.0;-18.0;-81.0;3144.0;-3117.0;-628.0;-52.0;55.0;-289.0;-982.0;208.0;63.0;163.0;-62.0;-186.0;1.0;1905.0;850.0;122.0;-7.0;68.0;-3312.0;3310.0;745.0;170.0;-29.0;214.0;1963.0;-95.0;-142.0;-106.0;61.0;116.0;964.0;-667.0;-539.0;-74.0;37.0;-3.0;306.0;-306.0;-366.0;-46.0;3.0;-6.0;-361.0;-87.0;21.0;13.0;11.0;-15.0;-74.0;-71.0;114.0;20.0;2.0;-11.0;147.0;-130.0;121.0;9.0;4.0;-25.0;307.0;-137.0;23.0;-4.0;5.0;-10.0;150.0;-33.0;48.0;0.0;0.0;-13.0;69.0;29.0;-3.0;-6.0;-19.0;8.0;-514.0;32.0;-45.0;0.0;-5.0;-6.0;-30.0;-49.0;-160.0RIGHT2;-72.0;-65.0;149.0;-227.0;-1633.0;-680.0;-153.0;-63.0;14.0;988.0;-3314.0;-1382.0;-122.0;80.0;-315.0;-657.0;-1471.0;-233.0;50.0;136.0;-340.0;-321.0;1814.0;1016.0;239.0;15.0;-181.0;-1073.0;3725.0;1745.0;192.0;-88.0;152.0;830.0;2220.0;524.0;-8.0;-90.0;212.0;729.0;371.0;-165.0;-77.0;39.0;134.0;240.0;3.0;-174.0;-24.0;4.0;72.0;118.0;-4.0;91.0;29.0;23.0;15.0;-106.0;-200.0;34.0;28.0;-15.0;21.0;22.0;-315.0;-28.0;25.0;-2.0;-8.0;-110.0;-373.0;-114.0;11.0;-14.0;-10.0;5.0;-310.0;-169.0;9.0;-15.0;-13.0;-127.0;-227.0;-180.0;5.0;-8.0;-12.0;112.0;-176.0;-193.0;-6.0;-10.0;-8.0;-131.0;-105.0;-104.0RIGHT2;-139.0;-4.0;97.0;-528.0;-204.0;-619.0;-88.0;-219.0;126.0;-506.0;-1654.0;-1715.0;-117.0;-3.0;-38.0;1330.0;-4167.0;-2060.0;6.0;89.0;-304.0;-546.0;-2082.0;279.0;49.0;270.0;-340.0;104.0;2240.0;2369.0;190.0;-126.0;-116.0;-1273.0;4692.0;3054.0;192.0;-159.0;137.0;877.0;2827.0;618.0;101.0;-90.0;159.0;1035.0;-199.0;-607.0;31.0;101.0;91.0;384.0;-191.0;-937.0;-48.0;70.0;62.0;398.0;-38.0;-484.0;-46.0;50.0;58.0;-502.0;-17.0;-188.0;-22.0;0.0;6.0;177.0;-273.0;-14.0;-16.0;8.0;15.0;-76.0;-378.0;78.0;-4.0;-5.0;-2.0;22.0;-424.0;93.0;-8.0;11.0;11.0;-201.0;-344.0;47.0;2.0;4.0;-7.0;-122.0;-174.0;-12.0RIGHT2;-167.0;-183.0;126.0;-94.0;-2820.0;-2020.0;-120.0;-47.0;-124.0;4738.0;-5024.0;-311.0;17.0;-78.0;-341.0;1453.0;214.0;1455.0;178.0;129.0;-272.0;-1289.0;3154.0;2849.0;237.0;-14.0;-48.0;-3798.0;4971.0;846.0;149.0;27.0;109.0;-352.0;394.0;-504.0;23.0;62.0;69.0;1466.0;175.0;-955.0;-38.0;52.0;80.0;-475.0;553.0;-208.0;-19.0;70.0;71.0;-577.0;429.0;122.0;-13.0;-1.0;56.0;-86.0;74.0;210.0;-4.0;-7.0;32.0;122.0;-140.0;82.0;-13.0;-9.0;14.0;377.0;-253.0;58.0;0.0;-5.0;9.0;186.0;-223.0;35.0;-1.0;5.0;1.0;52.0;-173.0;-5.0;0.0;6.0;6.0;-61.0;-148.0;-8.0;-1.0;-1.0;-7.0;-43.0;-187.0;-11.0RIGHT2;-20.0;48.0;-131.0;474.0;990.0;371.0;67.0;71.0;-36.0;-735.0;1354.0;978.0;55.0;-29.0;51.0;-49.0;1011.0;643.0;18.0;-13.0;57.0;231.0;467.0;232.0;-17.0;-10.0;36.0;287.0;349.0;136.0;-18.0;-11.0;25.0;157.0;319.0;173.0;-5.0;-3.0;22.0;228.0;245.0;149.0;1.0;-9.0;18.0;-125.0;67.0;68.0;3.0;-6.0;10.0;167.0;-69.0;-100.0;3.0;-6.0;5.0;-172.0;-163.0;-152.0;-3.0;-6.0;3.0;126.0;-199.0;-191.0;-1.0;-3.0;6.0;-152.0;-166.0;-164.0;10.0;13.0;7.0;-122.0;-140.0;-182.0;-6.0;0.0;9.0;-40.0;-169.0;-51.0;8.0;10.0;4.0;-74.0;-134.0;-44.0;-9.0;-10.0;-4.0;-101.0;-157.0;-10.0RIGHT2;1.0;15.0;-125.0;450.0;359.0;197.0;42.0;23.0;-80.0;77.0;1379.0;519.0;83.0;22.0;6.0;-139.0;1497.0;631.0;35.0;-11.0;42.0;31.0;993.0;350.0;-9.0;3.0;44.0;-120.0;594.0;212.0;-36.0;-3.0;38.0;164.0;441.0;146.0;-37.0;-1.0;29.0;69.0;316.0;142.0;-28.0;-1.0;38.0;158.0;161.0;92.0;-16.0;0.0;37.0;6.0;-54.0;52.0;3.0;1.0;31.0;137.0;-229.0;-27.0;4.0;-12.0;21.0;-1.0;-303.0;-92.0;24.0;6.0;14.0;-376.0;-192.0;-231.0;-3.0;-31.0;-2.0;-276.0;-195.0;-237.0;15.0;-6.0;-11.0;-393.0;-173.0;-237.0;-12.0;-25.0;-8.0;165.0;-276.0;-88.0;13.0;25.0;3.0;111.0;-249.0;-22.0RIGHT2;6.0;0.0;-175.0;990.0;-291.0;346.0;57.0;13.0;-120.0;337.0;1049.0;406.0;53.0;36.0;-60.0;-1042.0;1670.0;249.0;46.0;-11.0;-1.0;-790.0;1515.0;153.0;22.0;11.0;8.0;-893.0;1025.0;-53.0;11.0;11.0;36.0;-165.0;624.0;-240.0;-13.0;33.0;35.0;138.0;341.0;-240.0;-38.0;40.0;48.0;150.0;194.0;-106.0;-34.0;31.0;33.0;170.0;196.0;40.0;-29.0;20.0;24.0;36.0;128.0;99.0;-18.0;11.0;31.0;203.0;-55.0;93.0;-21.0;20.0;36.0;47.0;-274.0;89.0;-16.0;24.0;24.0;25.0;-303.0;115.0;-21.0;-1.0;4.0;-101.0;-226.0;198.0;-19.0;-17.0;0.0;-123.0;-147.0;277.0;2.0;-4.0;18.0;-367.0;-100.0;224.0RIGHT2;-21.0;-46.0;-139.0;1162.0;-912.0;138.0;31.0;-54.0;-144.0;927.0;405.0;256.0;82.0;-14.0;-88.0;-147.0;1507.0;268.0;91.0;-27.0;-35.0;-617.0;1530.0;149.0;53.0;0.0;-2.0;-538.0;1074.0;-108.0;27.0;-9.0;11.0;-93.0;612.0;-312.0;0.0;18.0;20.0;134.0;460.0;-419.0;-27.0;20.0;20.0;91.0;451.0;-448.0;-54.0;36.0;28.0;-291.0;493.0;-344.0;-44.0;27.0;28.0;-113.0;311.0;-94.0;-40.0;46.0;52.0;-105.0;189.0;73.0;-16.0;46.0;43.0;136.0;73.0;194.0;-14.0;40.0;48.0;-3.0;-72.0;255.0;0.0;13.0;46.0;50.0;-364.0;339.0;16.0;6.0;18.0;49.0;-478.0;240.0;2.0;-16.0;1.0;-128.0;-373.0;191.0RIGHT2;-30.0;-28.0;-139.0;1493.0;-657.0;505.0;46.0;-29.0;-157.0;436.0;689.0;733.0;79.0;-32.0;-74.0;-832.0;1599.0;408.0;84.0;-16.0;-36.0;-900.0;1543.0;-48.0;38.0;-3.0;12.0;-245.0;949.0;-224.0;21.0;4.0;15.0;158.0;648.0;-261.0;-14.0;15.0;34.0;60.0;642.0;-260.0;-34.0;20.0;42.0;-164.0;717.0;-189.0;-30.0;23.0;50.0;-289.0;610.0;-111.0;-22.0;29.0;49.0;-202.0;374.0;34.0;-14.0;30.0;66.0;-22.0;-24.0;205.0;-7.0;19.0;57.0;225.0;-323.0;253.0;0.0;-3.0;41.0;146.0;-413.0;96.0;-4.0;-10.0;8.0;-154.0;-260.0;-56.0;-19.0;-15.0;22.0;-306.0;-127.0;87.0;-4.0;-2.0;31.0;6.0;-63.0;229.0RIGHT2;-3.0;-59.0;-249.0;3642.0;-1745.0;-464.0;-54.0;32.0;-134.0;1791.0;-909.0;1288.0;160.0;4.0;-129.0;296.0;1699.0;853.0;62.0;15.0;19.0;-2956.0;2010.0;512.0;128.0;-76.0;-64.0;-1569.0;2065.0;-550.0;18.0;34.0;71.0;75.0;620.0;-81.0;-2.0;7.0;66.0;237.0;464.0;-213.0;-44.0;20.0;28.0;357.0;610.0;-386.0;-63.0;28.0;35.0;-109.0;708.0;-207.0;-40.0;40.0;33.0;-106.0;547.0;5.0;-22.0;41.0;50.0;-26.0;190.0;256.0;-2.0;28.0;54.0;-71.0;-217.0;448.0;10.0;19.0;44.0;-248.0;-330.0;352.0;1.0;-39.0;31.0;-346.0;-61.0;184.0;27.0;30.0;163.0;-4541.0;-829.0;-431.0;23.0;-92.0;61.0;185.0;-992.0;-95.0RIGHT2;25.0;-96.0;-115.0;5541.0;-28.0;134.0;1.0;68.0;-6.0;535.0;138.0;-105.0;11.0;87.0;-5.0;-290.0;-34.0;149.0;-7.0;37.0;-5.0;-796.0;-20.0;206.0;4.0;-27.0;-15.0;-383.0;48.0;118.0;-12.0;-8.0;14.0;-261.0;-18.0;9.0;-7.0;-16.0;-2.0;-10.0;-12.0;-8.0;-1.0;6.0;0.0;56.0;19.0;-11.0;2.0;3.0;-5.0;47.0;18.0;22.0;2.0;8.0;-5.0;-37.0;-9.0;6.0;-1.0;-2.0;-1.0;-10.0;-32.0;5.0;1.0;6.0;-2.0;-63.0;-16.0;-7.0;-1.0;-4.0;3.0;1.0;13.0;-5.0;1.0;7.0;-1.0;-81.0;7.0;-45.0;-3.0;-4.0;5.0;-121.0;9.0;-22.0;-1.0;-5.0;-1.0;-120.0;12.0;-21.0