Lable,AccX1,AccY1,AccZ1,GyrX1,GyrY1,GyrZ1,AccX2,AccY2,AccZ2,GyrX2,GyrY2,GyrZ2,AccX3,AccY3,AccZ3,GyrX3,GyrY3,GyrZ3,AccX4,AccY4,AccZ4,GyrX4,GyrY4,GyrZ4,AccX5,AccY5,AccZ5,GyrX5,GyrY5,GyrZ5,AccX6,AccY6,AccZ6,GyrX6,GyrY6,GyrZ6,AccX7,AccY7,AccZ7,GyrX7,GyrY7,GyrZ7,AccX8,AccY8,AccZ8,GyrX8,GyrY8,GyrZ8,AccX9,AccY9,AccZ9,GyrX9,GyrY9,GyrZ9,AccX10,AccY10,AccZ10,GyrX10,GyrY10,GyrZ10,AccX11,AccY11,AccZ11,GyrX11,GyrY11,GyrZ11,AccX12,AccY12,AccZ12,GyrX12,GyrY12,GyrZ12,AccX13,AccY13,AccZ13,GyrX13,GyrY13,GyrZ13,AccX14,AccY14,AccZ14,GyrX14,GyrY14,GyrZ14,AccX15,AccY15,AccZ15,GyrX15,GyrY15,GyrZ15,AccX16,AccY16,AccZ16,GyrX16,GyrY16,GyrZ16UP,-8.0,-83.0,104.0,396.0,-487.0,-513.0,-26.0,-53.0,8.0,251.0,-1035.0,-758.0,-25.0,31.0,-122.0,621.0,-890.0,-523.0,3.0,139.0,-200.0,54.0,-255.0,-124.0,44.0,187.0,-137.0,-144.0,606.0,633.0,55.0,108.0,-49.0,-457.0,981.0,997.0,42.0,22.0,-2.0,-576.0,1224.0,1166.0,7.0,-85.0,53.0,-171.0,1305.0,904.0,-23.0,-132.0,105.0,203.0,976.0,540.0,-44.0,-96.0,132.0,185.0,325.0,-52.0,-32.0,-74.0,112.0,163.0,-327.0,-421.0,-24.0,22.0,56.0,-162.0,-691.0,-561.0,5.0,6.0,5.0,52.0,-655.0,-437.0,-3.0,43.0,-36.0,-87.0,-619.0,-277.0,9.0,4.0,-46.0,77.0,-309.0,-169.0,2.0,16.0,-38.0,-64.0,-141.0,-46.0UP,-50.0,-15.0,87.0,-50.0,-1127.0,-543.0,-29.0,-34.0,-33.0,-105.0,-1331.0,-926.0,12.0,91.0,-194.0,53.0,-790.0,-559.0,73.0,107.0,-213.0,245.0,729.0,248.0,46.0,151.0,-120.0,-48.0,1371.0,1082.0,17.0,14.0,-10.0,-539.0,1432.0,1207.0,9.0,-58.0,63.0,-383.0,1232.0,906.0,-7.0,-111.0,111.0,19.0,855.0,534.0,-36.0,-98.0,141.0,137.0,339.0,46.0,-31.0,-70.0,109.0,126.0,-351.0,-284.0,-11.0,-20.0,51.0,-43.0,-682.0,-507.0,10.0,15.0,-12.0,68.0,-697.0,-398.0,4.0,27.0,-38.0,44.0,-504.0,-318.0,-5.0,31.0,-43.0,64.0,-259.0,-164.0,-6.0,5.0,-29.0,40.0,-97.0,-87.0,-5.0,10.0,-14.0,21.0,-1.0,-32.0UP,-16.0,-8.0,59.0,126.0,-994.0,-461.0,-23.0,14.0,-52.0,-176.0,-1123.0,-459.0,-13.0,63.0,-163.0,-308.0,-650.0,-363.0,27.0,115.0,-190.0,10.0,369.0,69.0,50.0,118.0,-121.0,-90.0,1168.0,756.0,43.0,45.0,-35.0,-108.0,1535.0,1141.0,20.0,-59.0,66.0,-265.0,1463.0,984.0,-13.0,-111.0,118.0,-19.0,832.0,440.0,-29.0,-83.0,127.0,31.0,232.0,84.0,-30.0,-70.0,97.0,-117.0,-359.0,-166.0,-15.0,-31.0,51.0,-100.0,-617.0,-355.0,1.0,-19.0,9.0,67.0,-625.0,-450.0,-4.0,21.0,-25.0,180.0,-520.0,-452.0,-2.0,25.0,-37.0,218.0,-299.0,-306.0,-2.0,31.0,-39.0,-38.0,-179.0,-136.0,7.0,9.0,-22.0,94.0,-10.0,-29.0UP,-30.0,-38.0,104.0,170.0,-683.0,-522.0,-32.0,-22.0,30.0,-12.0,-1349.0,-749.0,-15.0,49.0,-122.0,-158.0,-1314.0,-627.0,17.0,100.0,-222.0,108.0,-274.0,-105.0,49.0,153.0,-186.0,-211.0,987.0,629.0,42.0,87.0,-77.0,-311.0,1598.0,1156.0,36.0,-8.0,26.0,-470.0,1765.0,1235.0,-3.0,-118.0,112.0,-138.0,1373.0,854.0,-18.0,-120.0,154.0,176.0,614.0,288.0,-12.0,-95.0,152.0,11.0,-260.0,-231.0,-10.0,-38.0,83.0,256.0,-757.0,-524.0,-1.0,3.0,3.0,41.0,-829.0,-581.0,-9.0,35.0,-50.0,154.0,-571.0,-409.0,-4.0,39.0,-52.0,18.0,-331.0,-218.0,-1.0,16.0,-34.0,-62.0,-107.0,-58.0,2.0,3.0,-10.0,2.0,15.0,18.0UP,-30.0,-52.0,105.0,135.0,-919.0,-634.0,-20.0,-13.0,-4.0,99.0,-1246.0,-780.0,-10.0,60.0,-153.0,-17.0,-959.0,-583.0,33.0,130.0,-212.0,117.0,215.0,122.0,37.0,141.0,-133.0,-318.0,1066.0,821.0,34.0,74.0,-32.0,-315.0,1385.0,1225.0,17.0,-30.0,33.0,-400.0,1449.0,1201.0,0.0,-120.0,97.0,80.0,1118.0,743.0,-23.0,-118.0,141.0,214.0,516.0,197.0,-28.0,-94.0,126.0,-53.0,-316.0,-375.0,-26.0,-34.0,64.0,144.0,-713.0,-656.0,-6.0,9.0,-14.0,-60.0,-734.0,-625.0,2.0,46.0,-38.0,178.0,-435.0,-354.0,-2.0,33.0,-36.0,-98.0,-308.0,-149.0,4.0,15.0,-20.0,-56.0,-143.0,4.0,-1.0,-5.0,-14.0,4.0,-32.0,34.0UP,-18.0,-34.0,103.0,292.0,-511.0,-399.0,-15.0,-16.0,60.0,300.0,-1048.0,-551.0,-14.0,35.0,-99.0,-217.0,-1206.0,-469.0,11.0,70.0,-188.0,-216.0,-536.0,-258.0,30.0,126.0,-189.0,-210.0,375.0,242.0,50.0,100.0,-90.0,-269.0,1117.0,770.0,39.0,46.0,-24.0,-252.0,1509.0,1158.0,12.0,-62.0,47.0,-204.0,1571.0,999.0,-20.0,-114.0,99.0,81.0,1159.0,525.0,-33.0,-90.0,148.0,65.0,376.0,65.0,-31.0,-81.0,136.0,12.0,-457.0,-325.0,-15.0,-21.0,70.0,13.0,-876.0,-530.0,2.0,-7.0,-14.0,144.0,-783.0,-561.0,6.0,40.0,-61.0,-2.0,-499.0,-379.0,3.0,32.0,-48.0,99.0,-198.0,-195.0,2.0,18.0,-26.0,-46.0,-49.0,-14.0UP,-19.0,-47.0,102.0,190.0,-683.0,-564.0,-28.0,-17.0,16.0,79.0,-1243.0,-754.0,-21.0,43.0,-109.0,66.0,-1165.0,-600.0,2.0,103.0,-198.0,50.0,-342.0,-126.0,43.0,146.0,-157.0,74.0,726.0,362.0,45.0,123.0,-96.0,-331.0,1294.0,948.0,43.0,37.0,-18.0,-388.0,1602.0,1322.0,-4.0,-67.0,40.0,-429.0,1430.0,1311.0,-25.0,-137.0,106.0,-114.0,1049.0,811.0,-34.0,-125.0,151.0,170.0,384.0,64.0,-20.0,-103.0,158.0,-111.0,-636.0,-459.0,10.0,-60.0,77.0,106.0,-1001.0,-795.0,15.0,17.0,-25.0,25.0,-921.0,-697.0,4.0,47.0,-72.0,501.0,-269.0,-464.0,-10.0,66.0,-58.0,132.0,-139.0,-215.0,-3.0,19.0,-21.0,-58.0,-23.0,-3.0UP,-20.0,-15.0,101.0,716.0,-539.0,-285.0,-35.0,-6.0,39.0,163.0,-1136.0,-372.0,-31.0,47.0,-123.0,-138.0,-1074.0,-401.0,17.0,75.0,-210.0,-615.0,-300.0,-97.0,62.0,109.0,-179.0,-256.0,818.0,313.0,57.0,82.0,-67.0,-422.0,1273.0,737.0,34.0,-1.0,15.0,-322.0,1492.0,736.0,-22.0,-81.0,93.0,-150.0,1234.0,531.0,-42.0,-93.0,137.0,21.0,689.0,147.0,-36.0,-72.0,139.0,113.0,-3.0,-105.0,-2.0,-35.0,106.0,251.0,-470.0,-331.0,5.0,10.0,38.0,-95.0,-842.0,-301.0,12.0,8.0,-17.0,132.0,-668.0,-284.0,-4.0,36.0,-67.0,-137.0,-550.0,-150.0,1.0,-4.0,-58.0,295.0,-51.0,-102.0,-6.0,19.0,-33.0,-133.0,-2.0,39.0UP,-40.0,-22.0,85.0,222.0,-1139.0,-547.0,-27.0,5.0,-59.0,-6.0,-1302.0,-549.0,-2.0,52.0,-185.0,30.0,-781.0,-297.0,58.0,127.0,-215.0,-128.0,425.0,268.0,55.0,101.0,-106.0,-225.0,1042.0,672.0,49.0,67.0,-38.0,-450.0,1321.0,941.0,13.0,-51.0,20.0,-287.0,1461.0,895.0,-11.0,-72.0,65.0,-135.0,1344.0,631.0,-43.0,-109.0,122.0,198.0,804.0,211.0,-45.0,-69.0,154.0,-15.0,-54.0,-231.0,-26.0,-53.0,118.0,42.0,-682.0,-436.0,6.0,-10.0,45.0,-79.0,-828.0,-471.0,4.0,15.0,-31.0,73.0,-720.0,-375.0,4.0,27.0,-48.0,221.0,-421.0,-275.0,0.0,27.0,-49.0,63.0,-246.0,-114.0,6.0,5.0,-27.0,93.0,2.0,0.0UP,-36.0,-29.0,73.0,304.0,-905.0,-218.0,-48.0,3.0,-53.0,101.0,-1077.0,-433.0,-5.0,34.0,-178.0,-115.0,-418.0,-577.0,39.0,100.0,-186.0,-228.0,239.0,-269.0,76.0,124.0,-120.0,-519.0,908.0,422.0,45.0,64.0,-32.0,-287.0,1221.0,951.0,13.0,-29.0,42.0,-277.0,1394.0,973.0,-31.0,-109.0,108.0,144.0,1026.0,496.0,-29.0,-108.0,145.0,270.0,488.0,61.0,-24.0,-45.0,109.0,7.0,-210.0,-209.0,-21.0,6.0,63.0,40.0,-596.0,-464.0,-13.0,29.0,6.0,-53.0,-722.0,-418.0,-1.0,6.0,-21.0,125.0,-560.0,-334.0,2.0,15.0,-48.0,-119.0,-389.0,-102.0,2.0,2.0,-43.0,2.0,-134.0,-50.0,1.0,-3.0,-17.0,77.0,31.0,0.0UP,-20.0,-13.0,92.0,215.0,-829.0,-337.0,-25.0,7.0,0.0,-17.0,-1179.0,-415.0,-2.0,20.0,-135.0,-263.0,-899.0,-413.0,30.0,63.0,-186.0,-125.0,-47.0,-75.0,64.0,105.0,-156.0,-304.0,686.0,328.0,50.0,64.0,-71.0,-201.0,1238.0,721.0,27.0,19.0,-19.0,-285.0,1467.0,842.0,-25.0,-59.0,58.0,-95.0,1377.0,670.0,-40.0,-92.0,107.0,-18.0,846.0,312.0,-34.0,-86.0,145.0,0.0,179.0,-15.0,-19.0,-60.0,124.0,14.0,-416.0,-234.0,-5.0,-11.0,72.0,157.0,-675.0,-335.0,-7.0,-4.0,-1.0,170.0,-700.0,-395.0,-1.0,29.0,-48.0,177.0,-540.0,-375.0,2.0,28.0,-56.0,-20.0,-323.0,-227.0,5.0,30.0,-38.0,43.0,-81.0,2.0UP,-14.0,-39.0,70.0,8.0,-1060.0,-657.0,2.0,-16.0,-54.0,254.0,-1032.0,-743.0,18.0,70.0,-163.0,287.0,-490.0,-266.0,31.0,117.0,-190.0,275.0,478.0,297.0,20.0,120.0,-121.0,-319.0,1066.0,814.0,26.0,67.0,-50.0,-437.0,1300.0,979.0,12.0,-33.0,31.0,-379.0,1324.0,907.0,-9.0,-83.0,91.0,-117.0,976.0,608.0,-25.0,-112.0,129.0,69.0,580.0,219.0,-30.0,-62.0,131.0,-85.0,-90.0,-86.0,-22.0,-67.0,98.0,120.0,-460.0,-349.0,-4.0,-11.0,35.0,120.0,-703.0,-460.0,-2.0,8.0,-24.0,175.0,-630.0,-444.0,3.0,50.0,-50.0,135.0,-493.0,-348.0,-8.0,32.0,-49.0,-52.0,-254.0,-114.0,-2.0,10.0,-24.0,75.0,-20.0,-25.0UP,-21.0,-23.0,75.0,322.0,-849.0,-441.0,-24.0,-16.0,-25.0,211.0,-1027.0,-471.0,-27.0,55.0,-161.0,-424.0,-861.0,-497.0,22.0,78.0,-184.0,-276.0,-49.0,-266.0,63.0,145.0,-152.0,-186.0,734.0,203.0,66.0,132.0,-54.0,-179.0,1309.0,1186.0,37.0,12.0,1.0,65.0,1535.0,1368.0,-23.0,-93.0,64.0,-29.0,1335.0,1119.0,-43.0,-148.0,108.0,547.0,1079.0,330.0,-48.0,-86.0,144.0,73.0,371.0,-68.0,-39.0,-49.0,132.0,-42.0,-395.0,-431.0,-11.0,7.0,71.0,-171.0,-882.0,-592.0,-6.0,21.0,-3.0,-195.0,-913.0,-508.0,8.0,28.0,-43.0,118.0,-587.0,-357.0,2.0,18.0,-51.0,-117.0,-404.0,-178.0,8.0,8.0,-45.0,14.0,-133.0,-93.0UP,-33.0,-29.0,98.0,-55.0,-821.0,-456.0,-19.0,-16.0,16.0,132.0,-1300.0,-736.0,0.0,31.0,-130.0,-149.0,-1148.0,-674.0,52.0,69.0,-196.0,416.0,-70.0,-128.0,66.0,127.0,-159.0,-57.0,855.0,546.0,49.0,78.0,-75.0,-251.0,1307.0,932.0,28.0,29.0,-9.0,-536.0,1402.0,999.0,-13.0,-66.0,53.0,-384.0,1307.0,824.0,-34.0,-97.0,90.0,54.0,1052.0,521.0,-61.0,-91.0,142.0,109.0,405.0,104.0,-37.0,-80.0,138.0,1.0,-479.0,-365.0,-13.0,-15.0,84.0,-8.0,-931.0,-605.0,22.0,-3.0,-2.0,125.0,-879.0,-505.0,6.0,45.0,-59.0,202.0,-527.0,-309.0,6.0,18.0,-65.0,135.0,-254.0,-180.0,2.0,21.0,-44.0,-59.0,-45.0,-71.0UP,-17.0,-10.0,87.0,535.0,-762.0,-426.0,-28.0,2.0,-10.0,127.0,-1054.0,-511.0,-14.0,74.0,-139.0,-152.0,-747.0,-273.0,22.0,73.0,-172.0,-413.0,15.0,16.0,65.0,109.0,-126.0,-125.0,752.0,471.0,58.0,56.0,-55.0,-387.0,1172.0,822.0,34.0,-8.0,7.0,-199.0,1417.0,852.0,-25.0,-81.0,74.0,-210.0,1168.0,641.0,-41.0,-94.0,116.0,93.0,691.0,214.0,-48.0,-59.0,118.0,-66.0,46.0,-82.0,-24.0,-53.0,98.0,44.0,-451.0,-293.0,-8.0,-20.0,46.0,97.0,-696.0,-409.0,2.0,12.0,-7.0,159.0,-719.0,-388.0,2.0,35.0,-52.0,125.0,-494.0,-321.0,2.0,32.0,-59.0,28.0,-227.0,-133.0,6.0,3.0,-37.0,72.0,37.0,-16.0UP,-19.0,-54.0,100.0,193.0,-652.0,-470.0,-21.0,-17.0,39.0,78.0,-1102.0,-598.0,-6.0,14.0,-100.0,-225.0,-1039.0,-619.0,20.0,77.0,-179.0,-5.0,-235.0,-238.0,58.0,126.0,-173.0,511.0,665.0,269.0,45.0,109.0,-89.0,-167.0,1194.0,915.0,33.0,45.0,-25.0,-324.0,1423.0,1153.0,-10.0,-64.0,49.0,-1008.0,1349.0,1035.0,-31.0,-140.0,125.0,201.0,891.0,550.0,-40.0,-85.0,148.0,-215.0,163.0,140.0,-14.0,-131.0,130.0,257.0,-589.0,-357.0,-7.0,5.0,33.0,69.0,-814.0,-597.0,8.0,-1.0,-24.0,557.0,-573.0,-575.0,-12.0,89.0,-52.0,161.0,-352.0,-334.0,0.0,26.0,-40.0,34.0,-163.0,-166.0,-2.0,14.0,-26.0,-208.0,-128.0,-29.0UP,-39.0,-19.0,75.0,146.0,-1212.0,-683.0,-23.0,19.0,-76.0,125.0,-1279.0,-707.0,15.0,101.0,-181.0,-47.0,-602.0,-229.0,58.0,110.0,-209.0,121.0,607.0,422.0,56.0,96.0,-104.0,-321.0,1264.0,870.0,40.0,58.0,-43.0,-338.0,1555.0,1048.0,3.0,-40.0,37.0,-467.0,1565.0,864.0,-34.0,-90.0,97.0,-218.0,1162.0,527.0,-55.0,-95.0,166.0,-12.0,469.0,49.0,-34.0,-85.0,166.0,-187.0,-526.0,-319.0,-2.0,-30.0,87.0,173.0,-931.0,-533.0,24.0,-2.0,-10.0,185.0,-837.0,-425.0,9.0,47.0,-62.0,278.0,-482.0,-211.0,2.0,19.0,-53.0,7.0,-278.0,-126.0,-3.0,9.0,-40.0,-114.0,-137.0,-34.0,9.0,-8.0,-14.0,75.0,81.0,-11.0UP,-10.0,-32.0,94.0,294.0,-817.0,-475.0,-12.0,-4.0,-15.0,112.0,-1113.0,-461.0,-14.0,47.0,-149.0,23.0,-801.0,-340.0,9.0,97.0,-198.0,14.0,14.0,21.0,42.0,128.0,-130.0,-274.0,746.0,471.0,56.0,87.0,-63.0,-350.0,1146.0,887.0,32.0,1.0,-4.0,-455.0,1387.0,964.0,-13.0,-78.0,51.0,-179.0,1369.0,736.0,-39.0,-128.0,118.0,109.0,898.0,358.0,-37.0,-87.0,155.0,93.0,231.0,-37.0,-29.0,-65.0,133.0,311.0,-484.0,-352.0,-5.0,1.0,50.0,-17.0,-824.0,-531.0,3.0,29.0,-29.0,-69.0,-852.0,-447.0,6.0,32.0,-58.0,-34.0,-519.0,-328.0,2.0,31.0,-50.0,75.0,-184.0,-113.0,-2.0,-2.0,-22.0,102.0,42.0,-7.0UP,-25.0,-22.0,93.0,255.0,-1070.0,-499.0,-30.0,11.0,-65.0,46.0,-1367.0,-483.0,1.0,37.0,-176.0,-225.0,-837.0,-399.0,28.0,118.0,-219.0,-72.0,18.0,-47.0,57.0,142.0,-126.0,-199.0,874.0,496.0,67.0,117.0,-64.0,-368.0,1550.0,1262.0,24.0,-29.0,15.0,-280.0,1960.0,1371.0,-21.0,-113.0,78.0,-370.0,1704.0,1013.0,-71.0,-177.0,161.0,566.0,947.0,204.0,-54.0,-79.0,172.0,-202.0,-269.0,-477.0,-13.0,-50.0,130.0,300.0,-894.0,-760.0,16.0,47.0,25.0,-412.0,-1174.0,-630.0,25.0,10.0,-42.0,342.0,-626.0,-352.0,-4.0,44.0,-64.0,-51.0,-490.0,-204.0,8.0,4.0,-51.0,112.0,-141.0,-140.0,5.0,5.0,-24.0,-51.0,-27.0,1.0UP,-10.0,-53.0,101.0,220.0,-383.0,-361.0,-20.0,-52.0,86.0,374.0,-1009.0,-631.0,-26.0,-1.0,-65.0,270.0,-1258.0,-616.0,4.0,74.0,-185.0,6.0,-792.0,-381.0,37.0,147.0,-221.0,31.0,228.0,161.0,53.0,137.0,-128.0,-388.0,1039.0,701.0,38.0,76.0,-41.0,-358.0,1404.0,1077.0,12.0,-28.0,24.0,-587.0,1452.0,1102.0,-19.0,-102.0,77.0,-163.0,1352.0,762.0,-13.0,-144.0,138.0,328.0,1012.0,323.0,-35.0,-83.0,184.0,-119.0,59.0,-89.0,-1.0,-63.0,125.0,196.0,-698.0,-505.0,-18.0,23.0,31.0,-264.0,-1139.0,-577.0,12.0,18.0,-54.0,115.0,-788.0,-609.0,-3.0,33.0,-73.0,-498.0,-608.0,-302.0,3.0,35.0,-66.0,-708.0,-196.0,-106.0UP,10.0,-24.0,-64.0,-1133.0,-41.0,-129.0,14.0,-91.0,-78.0,-641.0,-132.0,-169.0,5.0,-22.0,-66.0,1110.0,-32.0,2.0,2.0,11.0,-49.0,1126.0,153.0,87.0,5.0,25.0,-13.0,1515.0,192.0,193.0,-2.0,22.0,-14.0,465.0,137.0,73.0,-1.0,-15.0,4.0,598.0,49.0,92.0,-8.0,12.0,-5.0,-68.0,10.0,13.0,1.0,-9.0,4.0,80.0,21.0,12.0,-3.0,7.0,-6.0,5.0,7.0,-8.0,1.0,-1.0,3.0,-8.0,29.0,5.0,-2.0,2.0,2.0,-63.0,4.0,-18.0,1.0,-5.0,4.0,-2.0,8.0,-6.0,0.0,1.0,-1.0,-25.0,-2.0,-20.0,-1.0,-2.0,1.0,22.0,4.0,-16.0,0.0,2.0,1.0,-12.0,-1.0,-16.0UP,28.0,-96.0,-52.0,-79.0,319.0,-229.0,-16.0,-91.0,-52.0,1002.0,736.0,-1179.0,-60.0,40.0,0.0,740.0,590.0,-1506.0,-86.0,168.0,63.0,910.0,168.0,-988.0,-10.0,255.0,114.0,-414.0,-521.0,218.0,53.0,194.0,94.0,-939.0,-703.0,1255.0,71.0,87.0,58.0,-1110.0,-657.0,1677.0,31.0,-52.0,-11.0,-1104.0,-589.0,1798.0,-7.0,-106.0,-49.0,-424.0,-549.0,1178.0,-19.0,-241.0,-44.0,-271.0,-569.0,919.0,-4.0,-158.0,-95.0,2.0,-341.0,49.0,11.0,-155.0,-68.0,411.0,221.0,-627.0,14.0,35.0,-61.0,643.0,625.0,-1199.0,-2.0,23.0,30.0,649.0,777.0,-919.0,-12.0,76.0,42.0,498.0,447.0,-423.0,-12.0,50.0,41.0,-58.0,138.0,-178.0UP,-11.0,-84.0,-42.0,535.0,692.0,-1025.0,-26.0,26.0,9.0,737.0,657.0,-1288.0,-41.0,135.0,42.0,711.0,130.0,-810.0,-5.0,199.0,84.0,-8.0,-475.0,153.0,23.0,203.0,79.0,-385.0,-657.0,822.0,42.0,106.0,55.0,-843.0,-652.0,1387.0,34.0,20.0,15.0,-827.0,-462.0,1502.0,1.0,-91.0,-42.0,-755.0,-416.0,1455.0,-31.0,-103.0,-70.0,-460.0,-336.0,957.0,-19.0,-178.0,-52.0,81.0,-255.0,482.0,-2.0,-165.0,-53.0,-150.0,-103.0,-407.0,18.0,-124.0,-18.0,610.0,222.0,-812.0,1.0,15.0,-20.0,253.0,438.0,-1051.0,-2.0,55.0,24.0,770.0,526.0,-623.0,-13.0,79.0,21.0,80.0,283.0,-360.0,-4.0,31.0,24.0,55.0,105.0,-124.0UP,14.0,-88.0,-38.0,-91.0,346.0,-503.0,5.0,-66.0,-32.0,580.0,667.0,-946.0,-10.0,42.0,7.0,737.0,507.0,-995.0,-19.0,140.0,60.0,888.0,60.0,-574.0,-13.0,193.0,75.0,-92.0,-619.0,250.0,11.0,183.0,70.0,-311.0,-692.0,835.0,22.0,104.0,34.0,-1086.0,-584.0,1355.0,29.0,2.0,5.0,-802.0,-302.0,1460.0,1.0,-104.0,-39.0,-729.0,-262.0,1353.0,-24.0,-151.0,-52.0,-396.0,-275.0,978.0,-14.0,-175.0,-50.0,-54.0,-245.0,234.0,-2.0,-138.0,-48.0,-189.0,-111.0,-544.0,13.0,-49.0,-20.0,740.0,302.0,-1026.0,-8.0,28.0,-2.0,379.0,406.0,-918.0,-8.0,56.0,29.0,703.0,444.0,-517.0,-7.0,50.0,19.0,-39.0,132.0,-228.0UP,23.0,-85.0,-26.0,-36.0,310.0,-638.0,-8.0,-28.0,-30.0,256.0,404.0,-1002.0,-19.0,71.0,19.0,590.0,452.0,-847.0,-28.0,164.0,46.0,603.0,48.0,-266.0,7.0,167.0,74.0,-26.0,-337.0,457.0,27.0,142.0,61.0,-249.0,-520.0,959.0,29.0,68.0,29.0,-858.0,-531.0,1322.0,14.0,-21.0,-6.0,-649.0,-412.0,1377.0,-11.0,-87.0,-46.0,-837.0,-382.0,1129.0,-3.0,-186.0,-44.0,135.0,-255.0,589.0,-1.0,-151.0,-51.0,-29.0,-100.0,-39.0,14.0,-128.0,-33.0,294.0,28.0,-529.0,-10.0,-4.0,-27.0,47.0,235.0,-823.0,-11.0,33.0,4.0,484.0,359.0,-735.0,-20.0,61.0,19.0,347.0,334.0,-489.0,-8.0,53.0,23.0,78.0,169.0,-183.0UP,19.0,-81.0,-31.0,208.0,441.0,-674.0,-2.0,-29.0,-21.0,455.0,519.0,-1008.0,-28.0,88.0,25.0,567.0,469.0,-839.0,-22.0,147.0,54.0,470.0,-21.0,-295.0,-3.0,178.0,73.0,-119.0,-402.0,351.0,26.0,153.0,59.0,-310.0,-632.0,910.0,21.0,80.0,31.0,-973.0,-637.0,1368.0,3.0,-17.0,-8.0,-610.0,-481.0,1507.0,-16.0,-100.0,-46.0,-732.0,-434.0,1238.0,-14.0,-199.0,-62.0,-62.0,-339.0,789.0,6.0,-182.0,-74.0,15.0,-155.0,-113.0,17.0,-125.0,-45.0,312.0,190.0,-693.0,5.0,18.0,-12.0,477.0,440.0,-1050.0,-7.0,59.0,23.0,398.0,503.0,-688.0,-18.0,68.0,25.0,330.0,286.0,-404.0,-12.0,46.0,19.0,-99.0,111.0,-107.0UP,10.0,-90.0,-36.0,457.0,634.0,-905.0,-12.0,-18.0,-16.0,551.0,635.0,-1224.0,-28.0,95.0,46.0,992.0,397.0,-946.0,-17.0,193.0,60.0,445.0,-474.0,135.0,12.0,200.0,68.0,-414.0,-680.0,745.0,27.0,132.0,38.0,-885.0,-619.0,1229.0,28.0,37.0,26.0,-1253.0,-342.0,1393.0,9.0,-71.0,-18.0,-730.0,-282.0,1502.0,-17.0,-111.0,-50.0,-661.0,-340.0,1006.0,-14.0,-178.0,-53.0,15.0,-266.0,338.0,-11.0,-151.0,-47.0,103.0,-113.0,-372.0,9.0,-102.0,-19.0,696.0,173.0,-675.0,-1.0,-8.0,-13.0,212.0,323.0,-788.0,-8.0,47.0,11.0,616.0,435.0,-688.0,-12.0,58.0,13.0,80.0,272.0,-414.0,-9.0,51.0,19.0,153.0,133.0,-208.0UP,18.0,-88.0,-36.0,209.0,547.0,-649.0,-12.0,-22.0,-23.0,563.0,622.0,-1064.0,-22.0,90.0,34.0,704.0,422.0,-876.0,-29.0,164.0,60.0,417.0,-170.0,-352.0,0.0,174.0,76.0,-53.0,-552.0,415.0,29.0,181.0,59.0,-492.0,-679.0,1115.0,31.0,61.0,30.0,-1036.0,-602.0,1580.0,12.0,-21.0,-22.0,-900.0,-415.0,1567.0,-16.0,-133.0,-56.0,-918.0,-333.0,1091.0,-8.0,-206.0,-60.0,288.0,-253.0,511.0,-6.0,-192.0,-40.0,226.0,-118.0,-212.0,9.0,-138.0,-31.0,339.0,170.0,-731.0,-3.0,27.0,-8.0,265.0,406.0,-1013.0,0.0,83.0,10.0,332.0,455.0,-676.0,-12.0,74.0,23.0,452.0,270.0,-366.0,-9.0,46.0,12.0,-113.0,85.0,-83.0UP,9.0,-76.0,-42.0,126.0,571.0,-690.0,-2.0,-23.0,-15.0,528.0,823.0,-1072.0,-3.0,88.0,37.0,758.0,492.0,-848.0,-2.0,161.0,77.0,477.0,-255.0,-186.0,2.0,167.0,77.0,-272.0,-745.0,565.0,2.0,133.0,52.0,-343.0,-733.0,1024.0,5.0,80.0,21.0,-880.0,-571.0,1389.0,9.0,-18.0,-7.0,-460.0,-503.0,1486.0,1.0,-97.0,-44.0,-794.0,-470.0,1316.0,-18.0,-224.0,-56.0,-67.0,-319.0,877.0,-16.0,-178.0,-66.0,-216.0,-111.0,-68.0,-3.0,-133.0,-41.0,290.0,213.0,-808.0,9.0,20.0,-13.0,392.0,451.0,-1209.0,-1.0,54.0,14.0,608.0,491.0,-821.0,-11.0,72.0,23.0,235.0,311.0,-400.0,-6.0,46.0,18.0,-5.0,101.0,-155.0UP,22.0,-90.0,-29.0,125.0,383.0,-511.0,-4.0,-56.0,-36.0,468.0,561.0,-994.0,-20.0,59.0,2.0,446.0,534.0,-1016.0,-40.0,141.0,46.0,584.0,197.0,-629.0,-3.0,189.0,83.0,251.0,-417.0,147.0,18.0,223.0,71.0,-655.0,-854.0,1089.0,35.0,87.0,39.0,-838.0,-804.0,1635.0,16.0,-15.0,-12.0,-1009.0,-504.0,1776.0,0.0,-150.0,-42.0,-300.0,-327.0,1211.0,-3.0,-217.0,-55.0,-7.0,-365.0,685.0,-4.0,-189.0,-58.0,205.0,-81.0,-153.0,-2.0,-136.0,-38.0,488.0,267.0,-715.0,-6.0,32.0,-16.0,136.0,562.0,-1001.0,-2.0,55.0,23.0,281.0,425.0,-784.0,-11.0,69.0,25.0,205.0,260.0,-474.0,-10.0,55.0,16.0,-1.0,8.0,-202.0UP,21.0,-88.0,-31.0,133.0,481.0,-627.0,-8.0,-45.0,-20.0,293.0,605.0,-1064.0,-21.0,73.0,28.0,745.0,457.0,-859.0,-31.0,165.0,62.0,498.0,-99.0,-260.0,7.0,195.0,85.0,27.0,-566.0,473.0,20.0,155.0,56.0,-712.0,-779.0,1058.0,26.0,60.0,24.0,-919.0,-672.0,1376.0,3.0,-33.0,-30.0,-666.0,-465.0,1517.0,-18.0,-126.0,-51.0,-528.0,-376.0,1194.0,-16.0,-198.0,-65.0,45.0,-290.0,590.0,4.0,-184.0,-60.0,77.0,18.0,-331.0,24.0,-117.0,-35.0,503.0,316.0,-938.0,10.0,28.0,-5.0,398.0,552.0,-1061.0,-12.0,78.0,24.0,256.0,414.0,-654.0,-13.0,81.0,28.0,194.0,295.0,-253.0,-5.0,43.0,20.0,-95.0,81.0,-31.0UP,-5.0,-60.0,-43.0,292.0,568.0,-940.0,-24.0,36.0,-1.0,611.0,607.0,-1122.0,-39.0,153.0,54.0,673.0,241.0,-746.0,-6.0,188.0,91.0,86.0,-427.0,247.0,21.0,182.0,65.0,-216.0,-716.0,1020.0,23.0,77.0,28.0,-854.0,-659.0,1479.0,24.0,-12.0,-14.0,-644.0,-379.0,1508.0,-7.0,-103.0,-44.0,-910.0,-312.0,1086.0,-14.0,-193.0,-53.0,-267.0,-260.0,631.0,-9.0,-170.0,-52.0,57.0,-146.0,-67.0,8.0,-134.0,-39.0,222.0,56.0,-483.0,11.0,-4.0,-21.0,430.0,318.0,-850.0,-8.0,32.0,5.0,274.0,398.0,-786.0,-12.0,63.0,25.0,559.0,409.0,-578.0,-9.0,70.0,23.0,48.0,177.0,-250.0,-1.0,45.0,15.0,-10.0,-19.0,19.0UP,19.0,-90.0,-36.0,90.0,390.0,-508.0,0.0,-76.0,-34.0,375.0,709.0,-1101.0,-23.0,66.0,16.0,792.0,576.0,-1175.0,-40.0,170.0,56.0,737.0,-17.0,-501.0,-16.0,223.0,90.0,220.0,-694.0,485.0,13.0,194.0,48.0,-896.0,-884.0,1321.0,23.0,59.0,27.0,-1121.0,-592.0,1720.0,12.0,-42.0,-37.0,-1082.0,-302.0,1758.0,-11.0,-170.0,-48.0,-729.0,-305.0,1232.0,-6.0,-212.0,-70.0,-109.0,-409.0,331.0,3.0,-182.0,-44.0,357.0,-87.0,-572.0,15.0,-109.0,-12.0,1150.0,353.0,-1053.0,5.0,41.0,9.0,470.0,592.0,-1045.0,-3.0,79.0,28.0,200.0,398.0,-677.0,-11.0,84.0,15.0,-245.0,197.0,-330.0,-4.0,42.0,20.0,-74.0,82.0,0.0UP,18.0,-84.0,-23.0,178.0,388.0,-677.0,-5.0,-21.0,-20.0,404.0,416.0,-988.0,-21.0,79.0,23.0,727.0,338.0,-835.0,-26.0,156.0,42.0,406.0,-29.0,-313.0,-6.0,185.0,78.0,-39.0,-426.0,430.0,21.0,190.0,62.0,-407.0,-618.0,1223.0,20.0,72.0,27.0,-937.0,-593.0,1660.0,15.0,-45.0,-29.0,-654.0,-400.0,1575.0,-22.0,-161.0,-69.0,-828.0,-322.0,1083.0,-11.0,-208.0,-52.0,207.0,-180.0,391.0,-5.0,-170.0,-47.0,91.0,-8.0,-400.0,18.0,-111.0,-12.0,506.0,302.0,-916.0,9.0,34.0,-5.0,185.0,386.0,-996.0,-6.0,74.0,21.0,334.0,352.0,-631.0,-10.0,75.0,20.0,184.0,172.0,-274.0,-11.0,40.0,11.0,-68.0,16.0,-76.0UP,16.0,-86.0,-26.0,366.0,460.0,-755.0,-5.0,-18.0,-12.0,485.0,456.0,-985.0,-22.0,84.0,24.0,828.0,257.0,-804.0,-37.0,184.0,48.0,100.0,-211.0,-181.0,0.0,208.0,79.0,-77.0,-519.0,502.0,15.0,157.0,54.0,-961.0,-668.0,1253.0,31.0,33.0,22.0,-687.0,-456.0,1580.0,0.0,-78.0,-40.0,-740.0,-274.0,1548.0,-25.0,-150.0,-72.0,-573.0,-302.0,1180.0,-8.0,-199.0,-57.0,48.0,-246.0,370.0,-4.0,-160.0,-45.0,168.0,-40.0,-438.0,20.0,-78.0,3.0,790.0,369.0,-1047.0,-7.0,34.0,9.0,279.0,432.0,-959.0,-5.0,68.0,27.0,353.0,341.0,-606.0,-11.0,68.0,22.0,66.0,132.0,-280.0,-6.0,36.0,9.0,-83.0,11.0,-46.0UP,15.0,-74.0,-42.0,145.0,409.0,-770.0,-20.0,23.0,-20.0,487.0,581.0,-970.0,-39.0,119.0,30.0,714.0,322.0,-606.0,-16.0,194.0,77.0,183.0,-190.0,287.0,20.0,156.0,76.0,-251.0,-521.0,943.0,36.0,105.0,47.0,-728.0,-573.0,1267.0,15.0,-5.0,4.0,-556.0,-478.0,1332.0,-22.0,-75.0,-41.0,-593.0,-512.0,1109.0,-24.0,-167.0,-70.0,-171.0,-450.0,645.0,-10.0,-173.0,-80.0,203.0,-149.0,-113.0,14.0,-129.0,-46.0,280.0,170.0,-619.0,8.0,-25.0,-15.0,378.0,476.0,-851.0,-1.0,47.0,25.0,386.0,466.0,-700.0,-10.0,75.0,31.0,308.0,314.0,-420.0,-13.0,56.0,28.0,7.0,105.0,-170.0,-2.0,26.0,13.0,-163.0,-19.0,16.0UP,29.0,-90.0,-28.0,393.0,343.0,-558.0,-12.0,-74.0,-36.0,623.0,500.0,-1203.0,-46.0,68.0,10.0,726.0,445.0,-1264.0,-54.0,180.0,39.0,168.0,46.0,-439.0,15.0,241.0,101.0,141.0,-400.0,515.0,44.0,170.0,60.0,-776.0,-630.0,1380.0,42.0,54.0,35.0,-897.0,-552.0,1631.0,4.0,-76.0,-39.0,-1317.0,-381.0,1729.0,-22.0,-148.0,-52.0,-622.0,-356.0,1224.0,-3.0,-203.0,-66.0,-39.0,-297.0,413.0,10.0,-163.0,-58.0,125.0,-78.0,-563.0,22.0,-92.0,-18.0,804.0,324.0,-1109.0,-6.0,35.0,6.0,528.0,471.0,-1025.0,-12.0,73.0,33.0,580.0,383.0,-526.0,-14.0,79.0,20.0,76.0,181.0,-194.0,-3.0,32.0,18.0,-162.0,-12.0,1.0UP,19.0,-74.0,-28.0,279.0,408.0,-817.0,-14.0,13.0,-6.0,402.0,439.0,-1020.0,-33.0,124.0,33.0,585.0,256.0,-680.0,-31.0,187.0,66.0,391.0,-211.0,60.0,19.0,189.0,76.0,84.0,-558.0,803.0,26.0,104.0,34.0,-982.0,-737.0,1494.0,25.0,-3.0,-5.0,-894.0,-459.0,1670.0,-13.0,-123.0,-41.0,-1016.0,-242.0,1426.0,-1.0,-216.0,-43.0,-15.0,-226.0,632.0,-5.0,-178.0,-55.0,-264.0,-238.0,-275.0,9.0,-110.0,-41.0,407.0,45.0,-793.0,-10.0,40.0,-17.0,445.0,371.0,-917.0,-8.0,63.0,20.0,561.0,468.0,-604.0,-12.0,61.0,23.0,205.0,243.0,-348.0,-6.0,38.0,18.0,-25.0,74.0,-130.0,-4.0,15.0,6.0,-16.0,-23.0,-9.0UP,14.0,-80.0,-35.0,283.0,648.0,-854.0,-13.0,12.0,-6.0,528.0,619.0,-1134.0,-34.0,120.0,42.0,666.0,266.0,-837.0,-23.0,172.0,66.0,355.0,-310.0,-143.0,9.0,178.0,76.0,400.0,-616.0,618.0,26.0,188.0,39.0,-909.0,-722.0,1541.0,23.0,44.0,15.0,-1048.0,-552.0,1938.0,5.0,-69.0,-40.0,-1576.0,-462.0,1695.0,-39.0,-309.0,-85.0,-875.0,-484.0,1132.0,2.0,-188.0,-66.0,95.0,-250.0,-53.0,7.0,-150.0,-41.0,357.0,124.0,-662.0,43.0,40.0,23.0,1166.0,565.0,-1258.0,-1.0,33.0,10.0,313.0,414.0,-800.0,-6.0,62.0,21.0,373.0,281.0,-477.0,-13.0,52.0,7.0,51.0,105.0,-239.0,-9.0,24.0,12.0,19.0,58.0,-72.0UP,-1.0,-79.0,-50.0,222.0,601.0,-1136.0,-26.0,36.0,0.0,864.0,755.0,-1281.0,-56.0,155.0,33.0,830.0,219.0,-602.0,-5.0,228.0,105.0,317.0,-434.0,350.0,16.0,201.0,77.0,-526.0,-873.0,1162.0,34.0,85.0,44.0,-1143.0,-720.0,1603.0,5.0,-29.0,-16.0,-806.0,-445.0,1765.0,-9.0,-127.0,-51.0,-890.0,-319.0,1443.0,-4.0,-219.0,-44.0,-306.0,-270.0,989.0,11.0,-187.0,-69.0,-340.0,-188.0,-142.0,26.0,-131.0,-39.0,271.0,103.0,-925.0,12.0,23.0,-20.0,644.0,406.0,-1370.0,-8.0,56.0,26.0,831.0,456.0,-880.0,-23.0,77.0,27.0,463.0,283.0,-365.0,-17.0,53.0,16.0,-93.0,70.0,-107.0,-3.0,20.0,11.0,-210.0,-3.0,68.0DOWN,-21.0,4.0,-38.0,57.0,595.0,458.0,-46.0,-31.0,22.0,370.0,782.0,528.0,-46.0,-37.0,106.0,537.0,483.0,341.0,-38.0,-69.0,129.0,89.0,-367.0,-273.0,-7.0,-24.0,74.0,-307.0,-948.0,-619.0,11.0,-16.0,-7.0,-214.0,-946.0,-783.0,16.0,46.0,-78.0,-198.0,-629.0,-529.0,25.0,37.0,-85.0,113.0,-199.0,-217.0,28.0,20.0,-56.0,112.0,76.0,81.0,31.0,18.0,-28.0,202.0,251.0,222.0,20.0,17.0,-9.0,64.0,287.0,252.0,16.0,10.0,6.0,-40.0,292.0,166.0,8.0,2.0,7.0,-131.0,179.0,121.0,12.0,-14.0,16.0,-55.0,150.0,31.0,7.0,-3.0,15.0,-39.0,54.0,47.0,3.0,-8.0,14.0,38.0,32.0,35.0DOWN,-22.0,12.0,-55.0,-150.0,439.0,428.0,-55.0,-19.0,-11.0,56.0,761.0,605.0,-57.0,-81.0,127.0,334.0,450.0,126.0,-40.0,-67.0,160.0,64.0,-398.0,-431.0,8.0,-19.0,97.0,66.0,-1004.0,-758.0,22.0,16.0,-30.0,-142.0,-973.0,-496.0,12.0,34.0,-86.0,222.0,-577.0,-333.0,12.0,25.0,-90.0,-151.0,-336.0,-189.0,28.0,40.0,-79.0,21.0,64.0,-10.0,40.0,22.0,-45.0,2.0,369.0,205.0,38.0,20.0,-7.0,93.0,466.0,297.0,21.0,-6.0,26.0,23.0,391.0,243.0,11.0,-4.0,32.0,-57.0,229.0,148.0,-7.0,-22.0,32.0,18.0,92.0,72.0,-4.0,-3.0,18.0,-26.0,-30.0,64.0,-8.0,-8.0,2.0,-85.0,-87.0,10.0DOWN,-66.0,-34.0,-6.0,393.0,835.0,466.0,-67.0,-59.0,109.0,422.0,489.0,49.0,-36.0,-60.0,161.0,260.0,-313.0,-440.0,9.0,5.0,91.0,-351.0,-1010.0,-546.0,16.0,7.0,-26.0,-231.0,-971.0,-507.0,14.0,16.0,-71.0,-105.0,-608.0,-392.0,12.0,7.0,-71.0,72.0,-377.0,-309.0,31.0,27.0,-54.0,10.0,-66.0,-53.0,36.0,27.0,-49.0,83.0,158.0,137.0,36.0,25.0,-35.0,33.0,379.0,267.0,20.0,10.0,-3.0,94.0,442.0,243.0,14.0,-2.0,25.0,-12.0,360.0,160.0,8.0,-19.0,39.0,-26.0,162.0,69.0,4.0,-16.0,26.0,-58.0,7.0,45.0,-3.0,-5.0,7.0,-21.0,-43.0,26.0,-6.0,1.0,-5.0,-63.0,-25.0,6.0DOWN,-63.0,-31.0,-13.0,192.0,929.0,691.0,-74.0,-59.0,119.0,450.0,393.0,126.0,-44.0,-87.0,176.0,77.0,-474.0,-438.0,2.0,-4.0,94.0,-69.0,-1225.0,-812.0,26.0,7.0,-57.0,-220.0,-939.0,-558.0,26.0,43.0,-103.0,12.0,-509.0,-394.0,27.0,23.0,-72.0,-2.0,-184.0,-143.0,34.0,29.0,-44.0,73.0,115.0,56.0,31.0,30.0,-34.0,-126.0,297.0,239.0,27.0,10.0,-11.0,76.0,460.0,279.0,13.0,-3.0,16.0,-52.0,367.0,235.0,8.0,-23.0,39.0,124.0,232.0,94.0,0.0,-19.0,33.0,-104.0,-10.0,2.0,0.0,-7.0,11.0,66.0,-28.0,-13.0,-2.0,1.0,-3.0,-86.0,-67.0,-9.0,2.0,6.0,-8.0,47.0,-2.0,-9.0DOWN,-27.0,37.0,-70.0,-106.0,649.0,670.0,-65.0,-66.0,26.0,610.0,890.0,708.0,-83.0,-71.0,109.0,243.0,310.0,-12.0,-33.0,-73.0,162.0,423.0,-460.0,-508.0,6.0,19.0,73.0,-332.0,-1075.0,-784.0,29.0,20.0,-27.0,-184.0,-928.0,-503.0,16.0,26.0,-82.0,-218.0,-578.0,-397.0,23.0,24.0,-85.0,-38.0,-269.0,-238.0,36.0,21.0,-51.0,214.0,115.0,44.0,34.0,17.0,-29.0,47.0,260.0,170.0,32.0,14.0,-10.0,41.0,427.0,277.0,20.0,6.0,13.0,49.0,396.0,246.0,8.0,-8.0,29.0,-72.0,236.0,167.0,1.0,-17.0,31.0,-61.0,64.0,68.0,-2.0,-14.0,18.0,-9.0,-25.0,37.0,-4.0,-6.0,3.0,20.0,-46.0,-19.0DOWN,-35.0,-2.0,-48.0,-12.0,669.0,755.0,-77.0,-30.0,28.0,584.0,787.0,623.0,-72.0,-128.0,147.0,434.0,-21.0,-332.0,-18.0,-18.0,147.0,1.0,-744.0,-738.0,23.0,-2.0,37.0,-567.0,-1191.0,-848.0,32.0,52.0,-72.0,-139.0,-644.0,-295.0,11.0,3.0,-90.0,66.0,-409.0,-382.0,25.0,24.0,-60.0,102.0,-84.0,-128.0,37.0,40.0,-43.0,14.0,177.0,67.0,35.0,24.0,-25.0,132.0,358.0,259.0,25.0,11.0,-2.0,-47.0,420.0,278.0,17.0,1.0,20.0,30.0,355.0,254.0,6.0,-28.0,36.0,-83.0,153.0,147.0,2.0,-21.0,29.0,6.0,2.0,22.0,-3.0,-12.0,13.0,-38.0,-76.0,-37.0,-2.0,9.0,-6.0,-5.0,-39.0,-36.0DOWN,-53.0,-67.0,133.0,515.0,-129.0,-411.0,-26.0,-5.0,118.0,-236.0,-890.0,-783.0,13.0,43.0,37.0,-606.0,-1112.0,-568.0,20.0,11.0,-78.0,-409.0,-755.0,-376.0,24.0,0.0,-95.0,84.0,-467.0,-389.0,38.0,10.0,-71.0,162.0,14.0,-147.0,35.0,45.0,-42.0,179.0,323.0,188.0,32.0,23.0,-18.0,219.0,455.0,340.0,15.0,10.0,8.0,79.0,398.0,311.0,11.0,-11.0,28.0,-66.0,250.0,194.0,1.0,-19.0,32.0,-169.0,70.0,41.0,6.0,-11.0,20.0,-32.0,1.0,11.0,-2.0,-9.0,6.0,-58.0,-41.0,4.0,1.0,-1.0,-3.0,102.0,-16.0,0.0,-2.0,2.0,-5.0,-15.0,-22.0,2.0,2.0,1.0,-2.0,44.0,17.0,-5.0DOWN,-64.0,-66.0,6.0,669.0,825.0,613.0,-55.0,-83.0,97.0,599.0,398.0,-74.0,-23.0,-74.0,151.0,627.0,-230.0,-581.0,14.0,42.0,75.0,-660.0,-1049.0,-854.0,17.0,25.0,-21.0,-44.0,-866.0,-559.0,2.0,38.0,-84.0,-317.0,-675.0,-428.0,11.0,17.0,-81.0,20.0,-262.0,-228.0,32.0,31.0,-57.0,-134.0,89.0,59.0,40.0,30.0,-35.0,176.0,426.0,273.0,31.0,7.0,-2.0,124.0,459.0,359.0,18.0,-14.0,27.0,131.0,387.0,275.0,9.0,-20.0,41.0,-198.0,134.0,121.0,3.0,-24.0,30.0,1.0,5.0,14.0,-5.0,-4.0,7.0,-79.0,-85.0,-29.0,-5.0,0.0,-9.0,-49.0,-68.0,-40.0,-1.0,6.0,-9.0,0.0,-17.0,-4.0DOWN,-61.0,-89.0,124.0,260.0,-34.0,-460.0,-9.0,-20.0,132.0,311.0,-684.0,-684.0,11.0,3.0,34.0,-558.0,-1099.0,-774.0,26.0,47.0,-64.0,-187.0,-652.0,-189.0,13.0,11.0,-96.0,-139.0,-392.0,-281.0,30.0,36.0,-60.0,-1.0,-39.0,-116.0,36.0,18.0,-37.0,100.0,183.0,69.0,30.0,16.0,-25.0,78.0,391.0,212.0,26.0,8.0,0.0,190.0,467.0,279.0,15.0,-2.0,26.0,-12.0,294.0,220.0,2.0,-16.0,35.0,-110.0,117.0,145.0,0.0,-21.0,26.0,-55.0,-16.0,24.0,-4.0,-11.0,6.0,-6.0,-49.0,-23.0,-1.0,2.0,-5.0,58.0,-37.0,-41.0,0.0,8.0,-6.0,-20.0,-21.0,4.0,0.0,3.0,-4.0,41.0,19.0,13.0DOWN,-14.0,34.0,-59.0,28.0,554.0,670.0,-53.0,-51.0,22.0,479.0,786.0,753.0,-58.0,-69.0,90.0,259.0,442.0,212.0,-43.0,-76.0,134.0,464.0,-250.0,-471.0,8.0,28.0,69.0,-595.0,-890.0,-911.0,4.0,4.0,-6.0,83.0,-1015.0,-712.0,8.0,20.0,-68.0,-455.0,-741.0,-561.0,18.0,19.0,-85.0,170.0,-301.0,-199.0,42.0,35.0,-59.0,-17.0,176.0,39.0,44.0,41.0,-32.0,89.0,330.0,273.0,34.0,9.0,-6.0,144.0,439.0,413.0,19.0,-3.0,16.0,66.0,391.0,376.0,5.0,-16.0,29.0,-76.0,222.0,237.0,-5.0,-20.0,28.0,-80.0,34.0,41.0,-2.0,-12.0,13.0,-87.0,-49.0,-43.0,1.0,-11.0,4.0,59.0,-38.0,-71.0DOWN,-49.0,-62.0,3.0,1073.0,1035.0,738.0,-63.0,-69.0,102.0,891.0,581.0,92.0,-41.0,-106.0,169.0,582.0,-404.0,-693.0,3.0,40.0,58.0,-1013.0,-1189.0,-805.0,30.0,31.0,-32.0,-242.0,-979.0,-773.0,8.0,66.0,-115.0,-572.0,-455.0,-314.0,19.0,-2.0,-62.0,190.0,-183.0,-350.0,28.0,24.0,-50.0,70.0,186.0,190.0,43.0,32.0,-20.0,151.0,438.0,247.0,27.0,18.0,1.0,117.0,434.0,360.0,16.0,-5.0,25.0,25.0,328.0,273.0,6.0,-21.0,37.0,-159.0,127.0,149.0,2.0,-20.0,27.0,-110.0,-36.0,25.0,-1.0,-15.0,9.0,7.0,-71.0,-35.0,-4.0,3.0,-7.0,12.0,-65.0,-50.0,-1.0,12.0,-9.0,58.0,1.0,-5.0DOWN,-26.0,0.0,-36.0,369.0,838.0,766.0,-66.0,-54.0,53.0,820.0,784.0,610.0,-65.0,-96.0,138.0,687.0,58.0,-204.0,-28.0,-34.0,147.0,-120.0,-880.0,-861.0,17.0,19.0,30.0,-479.0,-1093.0,-738.0,21.0,52.0,-66.0,-370.0,-727.0,-341.0,17.0,17.0,-100.0,-143.0,-370.0,-217.0,30.0,18.0,-62.0,-120.0,-72.0,-174.0,39.0,24.0,-34.0,58.0,165.0,63.0,28.0,17.0,-25.0,101.0,321.0,234.0,17.0,1.0,-9.0,126.0,357.0,260.0,15.0,-7.0,4.0,24.0,324.0,187.0,7.0,-3.0,20.0,-81.0,191.0,92.0,1.0,-12.0,25.0,83.0,163.0,16.0,-8.0,-11.0,25.0,96.0,78.0,-61.0,-7.0,13.0,15.0,58.0,9.0,-36.0DOWN,-40.0,-45.0,-33.0,499.0,1086.0,1078.0,-69.0,-54.0,92.0,520.0,726.0,543.0,-62.0,-105.0,173.0,299.0,-250.0,-489.0,-6.0,32.0,108.0,-471.0,-1119.0,-991.0,38.0,13.0,-15.0,-291.0,-1022.0,-564.0,25.0,46.0,-96.0,-313.0,-672.0,-285.0,15.0,-1.0,-91.0,65.0,-286.0,-135.0,20.0,27.0,-75.0,-61.0,134.0,9.0,28.0,29.0,-38.0,143.0,463.0,133.0,29.0,17.0,13.0,428.0,463.0,230.0,9.0,14.0,30.0,154.0,269.0,243.0,4.0,-23.0,43.0,-48.0,120.0,108.0,0.0,-14.0,19.0,-297.0,2.0,70.0,0.0,-23.0,11.0,-49.0,14.0,-45.0,-2.0,4.0,0.0,-78.0,-31.0,-8.0,-2.0,0.0,-1.0,-12.0,-17.0,-52.0DOWN,-59.0,-103.0,134.0,196.0,-107.0,-215.0,-27.0,-8.0,90.0,-418.0,-1021.0,-1068.0,42.0,36.0,1.0,-577.0,-892.0,-718.0,15.0,46.0,-70.0,-149.0,-563.0,-355.0,15.0,5.0,-60.0,62.0,-395.0,-286.0,22.0,-1.0,-51.0,-17.0,-33.0,0.0,30.0,35.0,-42.0,36.0,257.0,124.0,27.0,34.0,-13.0,227.0,404.0,337.0,19.0,-3.0,15.0,63.0,344.0,286.0,8.0,-9.0,26.0,-76.0,175.0,165.0,12.0,-29.0,23.0,-58.0,72.0,61.0,3.0,-12.0,9.0,-75.0,-3.0,53.0,-1.0,-15.0,4.0,-21.0,28.0,5.0,-4.0,2.0,0.0,-78.0,-28.0,-48.0,-2.0,6.0,-4.0,58.0,7.0,-64.0,2.0,14.0,-2.0,13.0,4.0,3.0DOWN,-7.0,43.0,-73.0,-90.0,574.0,547.0,-39.0,-21.0,-8.0,488.0,1145.0,846.0,-79.0,-61.0,96.0,651.0,789.0,377.0,-71.0,-86.0,171.0,-9.0,-188.0,-406.0,-14.0,3.0,141.0,-311.0,-1109.0,-737.0,19.0,6.0,15.0,-316.0,-1222.0,-584.0,36.0,23.0,-80.0,51.0,-697.0,-362.0,17.0,5.0,-124.0,-124.0,-396.0,-327.0,39.0,32.0,-78.0,46.0,130.0,6.0,33.0,25.0,-38.0,186.0,377.0,272.0,25.0,18.0,3.0,152.0,473.0,342.0,13.0,-14.0,27.0,-21.0,298.0,200.0,1.0,-9.0,25.0,-118.0,140.0,43.0,0.0,-22.0,25.0,-19.0,40.0,-52.0,1.0,0.0,9.0,-17.0,5.0,-5.0,3.0,-5.0,3.0,35.0,-2.0,27.0DOWN,-12.0,25.0,-60.0,-91.0,499.0,525.0,-66.0,-34.0,-3.0,696.0,1166.0,833.0,-88.0,-74.0,91.0,655.0,453.0,18.0,-38.0,-64.0,166.0,336.0,-199.0,-343.0,1.0,7.0,113.0,-576.0,-1325.0,-897.0,31.0,29.0,-5.0,-252.0,-848.0,-273.0,4.0,20.0,-100.0,-328.0,-689.0,-402.0,25.0,20.0,-109.0,6.0,-190.0,-188.0,31.0,14.0,-54.0,118.0,155.0,-11.0,36.0,10.0,-10.0,189.0,349.0,190.0,27.0,0.0,12.0,99.0,280.0,257.0,23.0,-16.0,19.0,12.0,202.0,207.0,4.0,0.0,6.0,-75.0,89.0,86.0,2.0,-12.0,1.0,-1.0,121.0,-12.0,-6.0,8.0,1.0,12.0,104.0,-52.0,-4.0,0.0,12.0,87.0,116.0,-36.0DOWN,-9.0,56.0,-64.0,24.0,495.0,580.0,-59.0,-51.0,-16.0,103.0,905.0,798.0,-67.0,-47.0,51.0,265.0,537.0,393.0,-43.0,-110.0,144.0,320.0,-46.0,-318.0,-6.0,-6.0,134.0,-315.0,-1089.0,-995.0,9.0,4.0,25.0,-91.0,-997.0,-495.0,8.0,16.0,-75.0,-206.0,-777.0,-445.0,35.0,39.0,-125.0,261.0,-224.0,-33.0,37.0,13.0,-62.0,105.0,125.0,-11.0,37.0,39.0,-29.0,72.0,276.0,140.0,15.0,23.0,0.0,-40.0,397.0,251.0,21.0,-4.0,21.0,91.0,347.0,100.0,-1.0,2.0,24.0,-47.0,178.0,95.0,7.0,-11.0,27.0,69.0,55.0,104.0,-2.0,-12.0,14.0,-84.0,-4.0,154.0,2.0,-11.0,6.0,-86.0,-27.0,81.0DOWN,-46.0,-96.0,29.0,792.0,1255.0,1114.0,-93.0,-46.0,116.0,637.0,251.0,96.0,20.0,-57.0,176.0,139.0,-263.0,-690.0,3.0,135.0,16.0,-271.0,-1556.0,-719.0,51.0,-51.0,-62.0,-249.0,-875.0,-408.0,-37.0,16.0,-126.0,204.0,-518.0,-183.0,27.0,-45.0,-47.0,-325.0,-3.0,-445.0,42.0,82.0,-32.0,283.0,490.0,288.0,21.0,4.0,5.0,59.0,351.0,316.0,12.0,-7.0,18.0,97.0,307.0,189.0,8.0,-10.0,24.0,-172.0,91.0,81.0,5.0,-23.0,23.0,-59.0,52.0,-3.0,3.0,-3.0,12.0,-20.0,22.0,-41.0,0.0,0.0,5.0,39.0,18.0,-12.0,-2.0,5.0,-3.0,-20.0,-29.0,-4.0,1.0,-4.0,-1.0,48.0,-5.0,20.0DOWN,-21.0,24.0,-54.0,91.0,694.0,985.0,-90.0,-67.0,17.0,883.0,1040.0,891.0,-69.0,-103.0,152.0,403.0,80.0,-345.0,-19.0,-30.0,156.0,73.0,-793.0,-1107.0,40.0,51.0,33.0,-886.0,-1389.0,-985.0,29.0,9.0,-76.0,250.0,-527.0,-167.0,2.0,10.0,-101.0,-217.0,-357.0,-202.0,27.0,1.0,-42.0,89.0,-26.0,-123.0,37.0,52.0,-39.0,-153.0,195.0,131.0,34.0,-2.0,-9.0,257.0,429.0,352.0,17.0,5.0,4.0,140.0,368.0,263.0,9.0,-11.0,24.0,67.0,232.0,130.0,-1.0,-4.0,21.0,-120.0,76.0,51.0,0.0,-11.0,19.0,-43.0,-4.0,6.0,-2.0,-9.0,8.0,-25.0,-31.0,15.0,-1.0,-5.0,1.0,41.0,-31.0,-22.0DOWN,-28.0,21.0,-50.0,102.0,679.0,864.0,-81.0,-56.0,20.0,894.0,1091.0,912.0,-70.0,-110.0,149.0,571.0,142.0,-203.0,-13.0,-42.0,160.0,74.0,-783.0,-996.0,21.0,-4.0,50.0,-459.0,-1432.0,-984.0,29.0,41.0,-77.0,-160.0,-692.0,-413.0,4.0,38.0,-125.0,-209.0,-363.0,-206.0,41.0,47.0,-71.0,-294.0,44.0,-130.0,48.0,39.0,-38.0,196.0,360.0,357.0,26.0,-3.0,-3.0,216.0,522.0,447.0,8.0,-12.0,24.0,166.0,321.0,180.0,-1.0,-18.0,31.0,-88.0,120.0,12.0,5.0,-14.0,31.0,-131.0,-18.0,-50.0,4.0,5.0,11.0,27.0,4.0,69.0,0.0,-1.0,-1.0,-27.0,-21.0,66.0,-1.0,0.0,-9.0,9.0,-2.0,-1.0DOWN,18.0,-7.0,-66.0,545.0,123.0,-187.0,-3.0,44.0,-29.0,1737.0,289.0,256.0,-19.0,167.0,-1.0,1449.0,37.0,860.0,-53.0,40.0,-7.0,368.0,-147.0,1927.0,-95.0,-124.0,-57.0,-365.0,-330.0,1314.0,-21.0,-200.0,-44.0,-898.0,63.0,-25.0,29.0,-174.0,-18.0,313.0,244.0,-1472.0,72.0,-5.0,9.0,402.0,484.0,-1590.0,-5.0,53.0,-10.0,421.0,312.0,-1026.0,-2.0,90.0,1.0,135.0,259.0,-620.0,6.0,90.0,22.0,211.0,74.0,-53.0,19.0,65.0,23.0,-58.0,-166.0,358.0,13.0,34.0,20.0,78.0,-200.0,523.0,14.0,24.0,14.0,-68.0,-156.0,481.0,14.0,-12.0,5.0,-106.0,-125.0,320.0,20.0,-27.0,-3.0,-238.0,-58.0,127.0DOWN,-39.0,84.0,18.0,140.0,-353.0,732.0,-70.0,18.0,-15.0,-371.0,-508.0,1292.0,-56.0,-141.0,-73.0,-357.0,-558.0,815.0,-3.0,-187.0,-71.0,-48.0,279.0,-307.0,30.0,-133.0,-29.0,360.0,487.0,-1335.0,26.0,26.0,18.0,406.0,783.0,-1333.0,-11.0,82.0,26.0,122.0,326.0,-880.0,-4.0,99.0,23.0,140.0,255.0,-362.0,16.0,69.0,29.0,89.0,-30.0,15.0,31.0,38.0,25.0,-158.0,-189.0,339.0,28.0,18.0,15.0,66.0,-235.0,419.0,19.0,5.0,1.0,-66.0,-133.0,420.0,12.0,-17.0,-3.0,-51.0,-115.0,234.0,13.0,-25.0,-3.0,-124.0,-38.0,106.0,10.0,-18.0,-2.0,-83.0,-67.0,22.0,6.0,-13.0,0.0,-7.0,-24.0,12.0DOWN,-96.0,-17.0,-61.0,-837.0,-592.0,964.0,-18.0,-147.0,-74.0,61.0,23.0,223.0,36.0,-157.0,-60.0,-462.0,371.0,-985.0,48.0,-63.0,15.0,659.0,701.0,-1424.0,-16.0,69.0,26.0,-148.0,457.0,-1122.0,-32.0,93.0,39.0,289.0,412.0,-528.0,15.0,100.0,44.0,315.0,97.0,73.0,29.0,55.0,32.0,-28.0,-306.0,492.0,40.0,15.0,11.0,-294.0,-356.0,560.0,29.0,-37.0,-10.0,-205.0,-189.0,320.0,17.0,-29.0,-14.0,-6.0,-30.0,114.0,8.0,-16.0,-6.0,21.0,11.0,68.0,4.0,-11.0,-2.0,21.0,8.0,36.0,3.0,-8.0,1.0,40.0,1.0,-17.0,-1.0,2.0,-4.0,6.0,-10.0,-28.0,2.0,-1.0,1.0,35.0,9.0,-1.0DOWN,-72.0,42.0,-4.0,-393.0,-537.0,1024.0,-53.0,-134.0,-46.0,-173.0,-516.0,867.0,16.0,-167.0,-91.0,-414.0,84.0,-491.0,24.0,-94.0,-26.0,283.0,735.0,-1260.0,22.0,55.0,9.0,296.0,780.0,-1510.0,-22.0,87.0,49.0,283.0,457.0,-570.0,15.0,57.0,31.0,181.0,63.0,-200.0,16.0,66.0,29.0,-244.0,-160.0,301.0,26.0,42.0,20.0,-127.0,-319.0,467.0,23.0,-5.0,2.0,-174.0,-294.0,478.0,22.0,-25.0,-9.0,-76.0,-142.0,303.0,15.0,-32.0,-14.0,-3.0,-35.0,102.0,5.0,-25.0,-8.0,73.0,-5.0,5.0,-1.0,-6.0,-6.0,-81.0,-24.0,-21.0,-1.0,-4.0,-1.0,-9.0,13.0,-36.0,-2.0,7.0,-5.0,-40.0,35.0,-46.0DOWN,-62.0,75.0,14.0,-225.0,-509.0,1020.0,-60.0,-77.0,-42.0,-414.0,-540.0,809.0,-22.0,-147.0,-63.0,-266.0,92.0,-63.0,45.0,-175.0,-66.0,431.0,682.0,-1179.0,21.0,28.0,-6.0,-37.0,637.0,-1198.0,1.0,68.0,21.0,143.0,550.0,-887.0,-22.0,96.0,45.0,82.0,158.0,-352.0,17.0,44.0,39.0,376.0,105.0,-10.0,28.0,53.0,27.0,-60.0,-384.0,367.0,27.0,25.0,17.0,-235.0,-352.0,542.0,16.0,-6.0,-2.0,-43.0,-205.0,422.0,12.0,-31.0,-6.0,-82.0,-55.0,205.0,11.0,-35.0,-6.0,-74.0,-27.0,52.0,10.0,-22.0,-2.0,1.0,-12.0,-3.0,-1.0,1.0,-9.0,-16.0,-14.0,-36.0,-4.0,3.0,-1.0,67.0,46.0,-62.0DOWN,-79.0,-22.0,-40.0,-677.0,-600.0,1056.0,-29.0,-130.0,-90.0,-259.0,-160.0,266.0,11.0,-161.0,-63.0,412.0,808.0,-1099.0,43.0,-22.0,11.0,95.0,540.0,-1446.0,12.0,76.0,47.0,425.0,564.0,-907.0,-4.0,106.0,34.0,-354.0,-99.0,-209.0,11.0,44.0,24.0,660.0,256.0,-8.0,21.0,34.0,24.0,-344.0,-193.0,248.0,29.0,13.0,25.0,-226.0,-231.0,455.0,23.0,-10.0,4.0,-97.0,-215.0,421.0,16.0,-26.0,-10.0,11.0,-121.0,252.0,10.0,-33.0,-13.0,-65.0,-58.0,123.0,2.0,-16.0,-9.0,-1.0,-42.0,20.0,-1.0,-14.0,-3.0,-5.0,-5.0,-29.0,-4.0,2.0,-5.0,90.0,43.0,-91.0,1.0,3.0,1.0,34.0,42.0,-58.0DOWN,-46.0,94.0,24.0,35.0,-410.0,652.0,-73.0,15.0,-20.0,-407.0,-748.0,1217.0,-23.0,-125.0,-93.0,-49.0,-333.0,635.0,51.0,-189.0,-93.0,344.0,650.0,-827.0,26.0,-15.0,-9.0,94.0,727.0,-1286.0,1.0,57.0,50.0,156.0,590.0,-1035.0,-45.0,94.0,58.0,-110.0,-13.0,-224.0,16.0,2.0,33.0,536.0,185.0,-198.0,18.0,37.0,23.0,-224.0,-109.0,203.0,24.0,25.0,27.0,-370.0,-207.0,345.0,19.0,4.0,5.0,-39.0,-178.0,354.0,18.0,-18.0,-7.0,-91.0,-169.0,262.0,16.0,-30.0,-14.0,-22.0,-85.0,128.0,10.0,-17.0,-14.0,-39.0,-45.0,30.0,3.0,-9.0,-5.0,22.0,25.0,-22.0,-2.0,2.0,-3.0,130.0,54.0,-32.0DOWN,-48.0,85.0,21.0,88.0,-474.0,833.0,-83.0,-40.0,-29.0,-599.0,-856.0,1201.0,-24.0,-125.0,-77.0,-164.0,-297.0,461.0,55.0,-183.0,-105.0,322.0,762.0,-1056.0,47.0,31.0,0.0,33.0,760.0,-1348.0,-3.0,55.0,29.0,306.0,561.0,-1006.0,-56.0,91.0,72.0,-101.0,-31.0,-230.0,11.0,6.0,31.0,662.0,263.0,-180.0,28.0,49.0,30.0,-281.0,-166.0,254.0,36.0,23.0,23.0,-246.0,-311.0,486.0,22.0,-10.0,-4.0,-185.0,-260.0,449.0,16.0,-29.0,-9.0,-71.0,-79.0,193.0,6.0,-20.0,-10.0,7.0,-1.0,63.0,4.0,-14.0,-4.0,98.0,0.0,8.0,-1.0,-5.0,-3.0,14.0,-28.0,34.0,1.0,-4.0,-2.0,-52.0,1.0,-7.0DOWN,-51.0,92.0,8.0,-375.0,-416.0,1048.0,-16.0,-125.0,-51.0,-308.0,-432.0,719.0,10.0,-163.0,-64.0,-227.0,202.0,-210.0,9.0,-169.0,-31.0,658.0,494.0,-1104.0,-14.0,36.0,16.0,276.0,511.0,-1037.0,-12.0,76.0,29.0,-110.0,262.0,-680.0,9.0,70.0,21.0,-284.0,118.0,-330.0,18.0,65.0,16.0,99.0,88.0,0.0,23.0,34.0,14.0,67.0,-163.0,240.0,16.0,23.0,15.0,74.0,-198.0,321.0,9.0,14.0,6.0,-150.0,-179.0,298.0,12.0,-11.0,0.0,-126.0,-71.0,221.0,14.0,-22.0,-8.0,-56.0,-53.0,142.0,15.0,-28.0,-8.0,-26.0,-43.0,93.0,2.0,-14.0,-6.0,31.0,-40.0,-11.0,-2.0,-4.0,-3.0,32.0,22.0,-22.0DOWN,-47.0,94.0,1.0,20.0,-559.0,991.0,-111.0,-84.0,-50.0,-600.0,-742.0,1363.0,-11.0,-154.0,-94.0,-230.0,-107.0,282.0,41.0,-176.0,-54.0,381.0,821.0,-1306.0,76.0,5.0,34.0,152.0,565.0,-1683.0,4.0,84.0,51.0,300.0,525.0,-776.0,-26.0,86.0,42.0,-281.0,-94.0,-98.0,8.0,77.0,8.0,549.0,333.0,11.0,11.0,49.0,24.0,-55.0,-189.0,183.0,20.0,22.0,22.0,-124.0,-203.0,492.0,25.0,-8.0,1.0,-213.0,-217.0,462.0,21.0,-42.0,-21.0,-172.0,-141.0,230.0,15.0,-37.0,-18.0,-9.0,-24.0,6.0,1.0,-10.0,-10.0,170.0,36.0,-54.0,0.0,-1.0,2.0,-28.0,42.0,13.0,-6.0,3.0,1.0,37.0,23.0,-12.0DOWN,-66.0,67.0,-28.0,-1068.0,-596.0,861.0,-39.0,-104.0,-65.0,164.0,-126.0,420.0,12.0,-178.0,-64.0,-554.0,201.0,-460.0,43.0,-119.0,-27.0,1295.0,660.0,-1051.0,13.0,33.0,21.0,-157.0,453.0,-846.0,-10.0,88.0,24.0,574.0,470.0,-548.0,-5.0,61.0,51.0,50.0,174.0,-214.0,11.0,71.0,42.0,78.0,-184.0,230.0,23.0,29.0,26.0,-252.0,-378.0,434.0,24.0,-5.0,7.0,-376.0,-240.0,392.0,17.0,-24.0,-8.0,-144.0,-75.0,204.0,12.0,-22.0,-8.0,-11.0,23.0,92.0,9.0,-18.0,-4.0,98.0,-43.0,56.0,1.0,-9.0,-5.0,3.0,-54.0,35.0,-3.0,-3.0,-5.0,22.0,-10.0,2.0,-3.0,-2.0,0.0,28.0,36.0,-19.0DOWN,-47.0,72.0,20.0,20.0,-517.0,911.0,-77.0,-49.0,-38.0,-703.0,-650.0,1007.0,-29.0,-141.0,-83.0,-342.0,-57.0,328.0,15.0,-173.0,-64.0,55.0,381.0,-734.0,32.0,-5.0,9.0,652.0,674.0,-1121.0,2.0,51.0,28.0,157.0,367.0,-898.0,-12.0,87.0,31.0,0.0,369.0,-570.0,14.0,42.0,21.0,47.0,197.0,-258.0,21.0,35.0,21.0,9.0,-35.0,95.0,27.0,28.0,17.0,-62.0,-198.0,302.0,22.0,16.0,4.0,-38.0,-230.0,339.0,17.0,6.0,2.0,-54.0,-111.0,310.0,12.0,-22.0,-2.0,-15.0,-40.0,184.0,12.0,-25.0,-2.0,12.0,-29.0,135.0,7.0,-25.0,-2.0,14.0,-70.0,46.0,1.0,-5.0,-4.0,12.0,-64.0,18.0DOWN,-62.0,109.0,25.0,116.0,-632.0,1132.0,-149.0,-48.0,-89.0,-1236.0,-1102.0,999.0,-32.0,-144.0,-116.0,-493.0,-323.0,419.0,25.0,-199.0,-104.0,546.0,977.0,-1334.0,100.0,27.0,69.0,523.0,958.0,-1275.0,15.0,62.0,63.0,456.0,647.0,-975.0,-14.0,103.0,71.0,-411.0,-115.0,-265.0,7.0,27.0,24.0,772.0,285.0,-25.0,18.0,46.0,17.0,-213.0,-235.0,282.0,39.0,14.0,25.0,-154.0,-236.0,538.0,29.0,-11.0,2.0,-71.0,-257.0,491.0,16.0,-44.0,-7.0,-104.0,-179.0,273.0,4.0,-32.0,-12.0,-64.0,-74.0,68.0,-1.0,-18.0,-10.0,-68.0,-3.0,-39.0,1.0,-6.0,-3.0,76.0,46.0,-72.0,0.0,5.0,-3.0,18.0,30.0,-72.0DOWN,-30.0,101.0,38.0,249.0,-426.0,669.0,-63.0,50.0,5.0,-242.0,-706.0,1150.0,-48.0,-108.0,-56.0,-376.0,-533.0,899.0,-21.0,-172.0,-77.0,-298.0,250.0,-216.0,47.0,-151.0,-61.0,535.0,861.0,-1217.0,21.0,47.0,3.0,-157.0,542.0,-1187.0,6.0,65.0,29.0,118.0,460.0,-809.0,-25.0,100.0,45.0,-92.0,70.0,-288.0,9.0,43.0,29.0,551.0,210.0,-16.0,22.0,47.0,28.0,35.0,-243.0,312.0,27.0,11.0,23.0,-97.0,-287.0,476.0,19.0,-12.0,0.0,-232.0,-239.0,381.0,14.0,-37.0,-8.0,-141.0,-99.0,200.0,10.0,-21.0,-13.0,-131.0,-47.0,72.0,6.0,-22.0,-4.0,77.0,-51.0,1.0,2.0,-3.0,-5.0,71.0,-31.0,-24.0DOWN,-62.0,1.0,-25.0,-419.0,-614.0,1012.0,-20.0,-115.0,-71.0,-36.0,-130.0,403.0,40.0,-171.0,-115.0,178.0,655.0,-855.0,36.0,-17.0,3.0,130.0,682.0,-1201.0,2.0,67.0,32.0,316.0,499.0,-872.0,-34.0,91.0,80.0,-92.0,20.0,-258.0,2.0,20.0,18.0,379.0,201.0,-181.0,19.0,28.0,23.0,-150.0,-118.0,191.0,31.0,25.0,23.0,-119.0,-235.0,449.0,20.0,-3.0,7.0,94.0,-300.0,479.0,10.0,-17.0,-1.0,-87.0,-167.0,280.0,3.0,-25.0,-9.0,-166.0,-46.0,75.0,5.0,-21.0,-11.0,-186.0,25.0,-42.0,8.0,-16.0,-7.0,15.0,38.0,-43.0,0.0,-3.0,-5.0,113.0,15.0,-50.0,-2.0,3.0,1.0,98.0,26.0,-28.0DOWN,-55.0,20.0,-4.0,-248.0,-394.0,835.0,-33.0,-95.0,-62.0,-249.0,-281.0,416.0,16.0,-149.0,-58.0,-91.0,287.0,-395.0,23.0,-60.0,-19.0,188.0,554.0,-963.0,11.0,-8.0,27.0,432.0,519.0,-967.0,-18.0,84.0,23.0,161.0,273.0,-501.0,0.0,32.0,16.0,119.0,86.0,-271.0,15.0,79.0,15.0,-130.0,41.0,133.0,22.0,30.0,19.0,-163.0,-150.0,249.0,21.0,10.0,10.0,-21.0,-155.0,326.0,16.0,-2.0,-1.0,-132.0,-173.0,257.0,14.0,-24.0,-2.0,-52.0,-108.0,201.0,9.0,-20.0,-9.0,-53.0,-68.0,74.0,3.0,-17.0,-7.0,42.0,-17.0,15.0,3.0,-3.0,-6.0,58.0,23.0,-26.0,-1.0,0.0,-1.0,43.0,17.0,-37.0DOWN,-48.0,-4.0,-19.0,-474.0,-620.0,1012.0,-25.0,-88.0,-68.0,51.0,-313.0,633.0,-5.0,-157.0,-72.0,-112.0,222.0,-252.0,13.0,-65.0,-5.0,650.0,711.0,-1029.0,6.0,-15.0,37.0,134.0,482.0,-996.0,-7.0,67.0,26.0,219.0,389.0,-661.0,11.0,70.0,16.0,-19.0,94.0,-342.0,16.0,78.0,19.0,-77.0,42.0,127.0,23.0,38.0,21.0,-167.0,-226.0,337.0,17.0,3.0,13.0,-23.0,-179.0,376.0,9.0,0.0,-2.0,-106.0,-158.0,252.0,12.0,-22.0,-3.0,-73.0,-50.0,150.0,11.0,-15.0,-7.0,-94.0,-45.0,63.0,11.0,-20.0,-4.0,5.0,-32.0,17.0,1.0,-7.0,-4.0,62.0,-35.0,-24.0,-1.0,0.0,-2.0,-2.0,13.0,-5.0DOWN,-49.0,38.0,4.0,-47.0,-474.0,862.0,-55.0,-43.0,-47.0,-311.0,-434.0,660.0,-11.0,-121.0,-62.0,-112.0,114.0,61.0,45.0,-140.0,-77.0,303.0,677.0,-1095.0,22.0,-2.0,16.0,-120.0,519.0,-997.0,-6.0,55.0,19.0,298.0,404.0,-906.0,-36.0,100.0,58.0,-124.0,67.0,-256.0,15.0,36.0,26.0,545.0,154.0,-28.0,33.0,26.0,21.0,-196.0,-237.0,273.0,30.0,10.0,13.0,-16.0,-224.0,390.0,14.0,2.0,-3.0,-96.0,-193.0,292.0,7.0,-13.0,-1.0,8.0,-14.0,193.0,11.0,-13.0,1.0,-91.0,-27.0,101.0,10.0,-13.0,1.0,-2.0,-40.0,83.0,7.0,-8.0,-2.0,12.0,-51.0,49.0,0.0,-9.0,-4.0,-52.0,-45.0,8.0DOWN,-58.0,29.0,-4.0,-179.0,-566.0,1065.0,-53.0,-93.0,-59.0,-202.0,-440.0,763.0,1.0,-173.0,-82.0,-76.0,253.0,-200.0,29.0,-129.0,-46.0,282.0,676.0,-1195.0,22.0,-3.0,21.0,364.0,639.0,-1259.0,-19.0,82.0,32.0,-2.0,316.0,-830.0,-8.0,101.0,43.0,99.0,136.0,-333.0,20.0,82.0,27.0,-62.0,-1.0,116.0,32.0,35.0,24.0,-4.0,-174.0,352.0,30.0,15.0,7.0,-153.0,-191.0,393.0,24.0,-9.0,2.0,-102.0,-117.0,317.0,15.0,-17.0,-3.0,-21.0,-91.0,200.0,16.0,-20.0,-3.0,-51.0,-104.0,137.0,8.0,-16.0,-4.0,0.0,-76.0,89.0,1.0,-7.0,-8.0,-65.0,-38.0,43.0,-3.0,-6.0,-2.0,49.0,26.0,-10.0DOWN,-46.0,89.0,26.0,198.0,-530.0,871.0,-97.0,-53.0,-25.0,-1063.0,-690.0,1197.0,-34.0,-137.0,-90.0,74.0,-184.0,395.0,39.0,-186.0,-89.0,136.0,700.0,-943.0,62.0,28.0,0.0,763.0,713.0,-1310.0,8.0,55.0,35.0,-77.0,478.0,-1070.0,-44.0,94.0,50.0,-34.0,153.0,-492.0,5.0,28.0,25.0,476.0,189.0,-291.0,22.0,58.0,31.0,-195.0,-137.0,368.0,35.0,28.0,22.0,-181.0,-276.0,545.0,22.0,-3.0,2.0,-171.0,-198.0,443.0,19.0,-30.0,-3.0,9.0,-69.0,259.0,15.0,-30.0,-6.0,-93.0,-85.0,114.0,6.0,-21.0,-9.0,-17.0,-51.0,41.0,4.0,-15.0,-7.0,91.0,22.0,-51.0,-1.0,-2.0,-5.0,-7.0,34.0,-68.0RIGHT,-22.0,-74.0,-15.0,82.0,366.0,-864.0,-98.0,21.0,10.0,608.0,150.0,-945.0,-61.0,151.0,52.0,70.0,-61.0,-414.0,-10.0,203.0,60.0,156.0,-420.0,547.0,55.0,105.0,42.0,-316.0,-290.0,1313.0,22.0,-1.0,-8.0,120.0,-243.0,1501.0,1.0,-104.0,-31.0,-50.0,-41.0,1207.0,4.0,-101.0,-35.0,-97.0,-98.0,614.0,12.0,-88.0,-23.0,-72.0,-133.0,107.0,19.0,-58.0,-14.0,-108.0,-89.0,-263.0,26.0,-26.0,-3.0,148.0,26.0,-549.0,18.0,20.0,-9.0,-117.0,87.0,-503.0,13.0,22.0,-2.0,101.0,150.0,-437.0,5.0,21.0,4.0,-94.0,120.0,-265.0,-4.0,14.0,14.0,144.0,105.0,-213.0,-6.0,14.0,9.0,-79.0,26.0,-171.0RIGHT,-15.0,-82.0,-26.0,91.0,438.0,-822.0,-68.0,1.0,2.0,276.0,352.0,-898.0,-84.0,133.0,56.0,605.0,106.0,-441.0,-42.0,166.0,73.0,52.0,-276.0,220.0,27.0,140.0,63.0,98.0,-420.0,1010.0,48.0,45.0,14.0,-223.0,-418.0,1376.0,21.0,-27.0,-31.0,-39.0,-289.0,1508.0,-11.0,-103.0,-40.0,-96.0,-103.0,1090.0,-7.0,-108.0,-33.0,-285.0,-109.0,440.0,14.0,-106.0,-37.0,-231.0,-295.0,-206.0,43.0,-54.0,-30.0,-321.0,-47.0,-582.0,39.0,-19.0,-12.0,293.0,98.0,-780.0,20.0,33.0,14.0,231.0,367.0,-593.0,-3.0,42.0,16.0,399.0,166.0,-424.0,-7.0,34.0,11.0,-70.0,122.0,-125.0,-2.0,17.0,13.0,7.0,39.0,-83.0RIGHT,-6.0,-84.0,-44.0,449.0,428.0,-716.0,-66.0,23.0,5.0,79.0,382.0,-736.0,-76.0,137.0,66.0,466.0,-26.0,-571.0,-37.0,205.0,87.0,-479.0,-339.0,474.0,18.0,120.0,40.0,158.0,-461.0,1044.0,33.0,9.0,-5.0,-259.0,-198.0,1538.0,5.0,-79.0,-29.0,34.0,-182.0,1136.0,10.0,-125.0,-30.0,-305.0,-122.0,614.0,17.0,-123.0,-35.0,-192.0,-248.0,-38.0,39.0,-74.0,-30.0,-44.0,-33.0,-484.0,33.0,-3.0,-12.0,184.0,73.0,-673.0,14.0,38.0,8.0,217.0,296.0,-544.0,-4.0,41.0,13.0,61.0,117.0,-314.0,-10.0,24.0,13.0,17.0,116.0,-116.0,-3.0,19.0,11.0,-66.0,21.0,-28.0,-2.0,4.0,8.0,22.0,8.0,-12.0RIGHT,-5.0,-75.0,-42.0,32.0,376.0,-682.0,-35.0,-50.0,2.0,307.0,501.0,-892.0,-74.0,113.0,43.0,534.0,29.0,-751.0,-59.0,143.0,79.0,229.0,-162.0,166.0,-19.0,169.0,57.0,-199.0,-544.0,799.0,27.0,50.0,21.0,-113.0,-268.0,1314.0,32.0,-11.0,-19.0,-230.0,-312.0,1167.0,13.0,-80.0,-40.0,95.0,-144.0,950.0,3.0,-95.0,-34.0,-143.0,-122.0,469.0,22.0,-90.0,-33.0,-145.0,-182.0,12.0,39.0,-67.0,-25.0,-72.0,-9.0,-315.0,39.0,-34.0,-8.0,83.0,144.0,-623.0,23.0,19.0,15.0,46.0,216.0,-613.0,5.0,37.0,23.0,41.0,121.0,-471.0,-2.0,42.0,13.0,44.0,57.0,-179.0,-9.0,21.0,0.0,90.0,50.0,3.0RIGHT,14.0,-109.0,-38.0,-261.0,230.0,-476.0,-13.0,-90.0,-24.0,-90.0,429.0,-1023.0,-84.0,5.0,2.0,476.0,465.0,-1016.0,-82.0,203.0,72.0,908.0,30.0,-360.0,-48.0,224.0,69.0,217.0,-385.0,731.0,38.0,140.0,44.0,-229.0,-522.0,1299.0,40.0,-31.0,-17.0,-591.0,-272.0,1353.0,29.0,-92.0,-30.0,-34.0,-77.0,1078.0,2.0,-101.0,-20.0,-260.0,-143.0,583.0,11.0,-108.0,-17.0,-185.0,-205.0,60.0,32.0,-81.0,-20.0,-114.0,-187.0,-488.0,44.0,-16.0,-14.0,207.0,57.0,-567.0,21.0,31.0,-1.0,156.0,157.0,-471.0,-7.0,36.0,10.0,90.0,155.0,-244.0,-13.0,21.0,5.0,-52.0,30.0,-168.0,-4.0,11.0,1.0,-36.0,38.0,-96.0RIGHT,8.0,-98.0,-42.0,-147.0,289.0,-599.0,-45.0,-25.0,-2.0,248.0,452.0,-897.0,-114.0,125.0,38.0,403.0,-82.0,-699.0,-56.0,190.0,84.0,195.0,-100.0,214.0,1.0,159.0,41.0,-85.0,-463.0,1088.0,65.0,16.0,8.0,-206.0,-44.0,1416.0,14.0,-61.0,-26.0,-44.0,-289.0,1149.0,5.0,-115.0,-29.0,-289.0,-199.0,675.0,13.0,-112.0,-26.0,-119.0,-179.0,193.0,25.0,-75.0,-26.0,-76.0,-106.0,-300.0,31.0,-33.0,-18.0,140.0,44.0,-558.0,24.0,9.0,2.0,207.0,152.0,-604.0,10.0,28.0,12.0,77.0,158.0,-454.0,0.0,33.0,13.0,39.0,102.0,-231.0,-8.0,21.0,3.0,-38.0,46.0,-148.0,-5.0,21.0,1.0,-6.0,30.0,-19.0RIGHT,11.0,-107.0,-56.0,-236.0,297.0,-565.0,-36.0,-40.0,-24.0,243.0,535.0,-875.0,-72.0,77.0,36.0,684.0,355.0,-743.0,-63.0,190.0,104.0,487.0,-4.0,145.0,-9.0,144.0,84.0,-36.0,-522.0,834.0,29.0,67.0,16.0,-309.0,-508.0,1156.0,20.0,-41.0,-40.0,-170.0,-387.0,1086.0,11.0,-85.0,-58.0,-105.0,-160.0,796.0,14.0,-104.0,-30.0,-206.0,-71.0,379.0,26.0,-81.0,-22.0,-170.0,-85.0,-188.0,27.0,-50.0,-14.0,-3.0,23.0,-398.0,27.0,-3.0,-3.0,235.0,127.0,-496.0,3.0,23.0,8.0,168.0,147.0,-428.0,-4.0,37.0,15.0,-66.0,104.0,-318.0,-8.0,24.0,8.0,-66.0,40.0,-233.0,-1.0,12.0,4.0,-48.0,18.0,-49.0RIGHT,1.0,-84.0,-48.0,-136.0,292.0,-692.0,-36.0,-26.0,-14.0,73.0,474.0,-935.0,-99.0,84.0,43.0,469.0,171.0,-847.0,-34.0,192.0,96.0,223.0,-157.0,101.0,0.0,150.0,65.0,15.0,-471.0,1002.0,52.0,71.0,12.0,-279.0,-360.0,1330.0,7.0,-67.0,-37.0,-90.0,-230.0,1225.0,7.0,-99.0,-45.0,-122.0,-134.0,672.0,15.0,-105.0,-29.0,-174.0,-160.0,285.0,16.0,-80.0,-20.0,-74.0,-42.0,-136.0,27.0,-46.0,-19.0,56.0,4.0,-432.0,24.0,2.0,-6.0,74.0,168.0,-508.0,13.0,23.0,9.0,116.0,136.0,-450.0,-3.0,26.0,22.0,75.0,120.0,-288.0,-12.0,20.0,13.0,32.0,53.0,-130.0,-4.0,18.0,2.0,6.0,14.0,-78.0RIGHT,-6.0,-89.0,-36.0,-2.0,400.0,-940.0,-55.0,0.0,9.0,283.0,538.0,-877.0,-60.0,153.0,62.0,198.0,92.0,-427.0,-60.0,187.0,85.0,240.0,-262.0,756.0,0.0,126.0,53.0,-84.0,-638.0,1164.0,4.0,7.0,-9.0,-78.0,-502.0,1344.0,23.0,-73.0,-43.0,-232.0,-334.0,949.0,15.0,-100.0,-61.0,-269.0,-154.0,596.0,28.0,-125.0,-34.0,-169.0,-48.0,212.0,33.0,-82.0,-18.0,67.0,43.0,-378.0,33.0,-40.0,5.0,248.0,115.0,-592.0,18.0,36.0,6.0,218.0,170.0,-712.0,5.0,49.0,12.0,-37.0,137.0,-327.0,-8.0,26.0,9.0,-2.0,94.0,-183.0,-10.0,21.0,7.0,-6.0,50.0,-54.0,-5.0,7.0,7.0,40.0,7.0,-39.0RIGHT,5.0,-99.0,-57.0,-35.0,343.0,-713.0,-45.0,-11.0,-8.0,412.0,594.0,-968.0,-74.0,139.0,56.0,290.0,-83.0,-679.0,-59.0,183.0,97.0,110.0,-140.0,465.0,-3.0,123.0,60.0,-241.0,-619.0,1075.0,30.0,1.0,6.0,2.0,-164.0,1341.0,28.0,-46.0,-32.0,-112.0,-364.0,908.0,23.0,-89.0,-44.0,-101.0,-166.0,672.0,14.0,-98.0,-36.0,-238.0,-49.0,343.0,18.0,-78.0,-27.0,-47.0,5.0,-142.0,22.0,-44.0,-14.0,28.0,100.0,-501.0,19.0,0.0,7.0,231.0,142.0,-706.0,8.0,35.0,17.0,80.0,135.0,-509.0,-6.0,34.0,15.0,61.0,101.0,-235.0,-9.0,27.0,8.0,-65.0,35.0,-84.0,-3.0,11.0,3.0,1.0,23.0,-15.0RIGHT,-26.0,-99.0,-35.0,189.0,579.0,-1023.0,-96.0,21.0,22.0,347.0,379.0,-1133.0,-75.0,211.0,103.0,323.0,-206.0,-470.0,-30.0,222.0,86.0,-227.0,-536.0,863.0,43.0,113.0,34.0,-154.0,-546.0,1463.0,25.0,-46.0,-33.0,-197.0,-204.0,1502.0,20.0,-89.0,-46.0,-9.0,-171.0,1010.0,13.0,-97.0,-39.0,-408.0,-129.0,527.0,21.0,-117.0,-24.0,-245.0,-140.0,111.0,33.0,-81.0,-21.0,9.0,-67.0,-437.0,35.0,-35.0,-4.0,302.0,124.0,-581.0,18.0,34.0,1.0,283.0,241.0,-664.0,0.0,47.0,11.0,58.0,194.0,-371.0,-7.0,36.0,12.0,-7.0,123.0,-169.0,-10.0,18.0,11.0,-81.0,17.0,-48.0,-4.0,5.0,7.0,3.0,18.0,-5.0RIGHT,3.0,-81.0,-31.0,22.0,321.0,-858.0,-35.0,-29.0,-6.0,289.0,482.0,-853.0,-61.0,133.0,48.0,778.0,305.0,-593.0,-47.0,164.0,74.0,253.0,-35.0,533.0,-6.0,163.0,61.0,-140.0,-555.0,898.0,30.0,26.0,22.0,-313.0,-540.0,1211.0,15.0,-37.0,-31.0,-274.0,-444.0,1116.0,10.0,-112.0,-46.0,30.0,-113.0,839.0,8.0,-101.0,-34.0,-261.0,-41.0,395.0,18.0,-97.0,-26.0,5.0,-73.0,-185.0,23.0,-51.0,-18.0,64.0,115.0,-510.0,24.0,7.0,-1.0,302.0,167.0,-761.0,11.0,50.0,14.0,-28.0,161.0,-540.0,-5.0,43.0,19.0,-14.0,62.0,-335.0,-11.0,23.0,8.0,-99.0,16.0,-71.0,-4.0,11.0,4.0,35.0,41.0,-10.0RIGHT,7.0,-79.0,-36.0,-47.0,322.0,-693.0,-37.0,-4.0,-2.0,249.0,471.0,-742.0,-72.0,128.0,52.0,394.0,120.0,-365.0,-47.0,169.0,87.0,133.0,-213.0,497.0,3.0,123.0,54.0,31.0,-578.0,999.0,27.0,2.0,-2.0,-116.0,-420.0,1116.0,18.0,-60.0,-50.0,-66.0,-317.0,808.0,17.0,-106.0,-49.0,-96.0,-82.0,540.0,23.0,-88.0,-28.0,-92.0,-3.0,212.0,18.0,-70.0,-17.0,-37.0,59.0,-169.0,16.0,-30.0,-3.0,56.0,112.0,-533.0,12.0,12.0,6.0,-15.0,157.0,-688.0,10.0,40.0,15.0,60.0,129.0,-459.0,-6.0,45.0,12.0,-4.0,69.0,-174.0,-11.0,23.0,5.0,48.0,15.0,-11.0,-4.0,8.0,6.0,20.0,17.0,24.0RIGHT,12.0,-84.0,-61.0,-580.0,157.0,-385.0,-21.0,-77.0,-32.0,98.0,607.0,-832.0,-66.0,33.0,18.0,555.0,583.0,-734.0,-56.0,135.0,101.0,884.0,156.0,-334.0,-23.0,195.0,83.0,229.0,-542.0,716.0,20.0,96.0,47.0,-246.0,-676.0,1106.0,17.0,3.0,-22.0,-169.0,-447.0,1219.0,10.0,-87.0,-47.0,-164.0,-283.0,871.0,12.0,-105.0,-48.0,-193.0,-128.0,408.0,29.0,-99.0,-30.0,-113.0,-85.0,31.0,42.0,-73.0,-19.0,-117.0,45.0,-420.0,28.0,-3.0,-7.0,238.0,177.0,-579.0,0.0,35.0,6.0,-5.0,225.0,-500.0,-16.0,43.0,20.0,88.0,205.0,-269.0,-15.0,31.0,18.0,-105.0,11.0,-141.0,-3.0,24.0,9.0,51.0,-27.0,-110.0RIGHT,-6.0,-52.0,-24.0,119.0,404.0,-793.0,-56.0,60.0,2.0,175.0,414.0,-608.0,-64.0,144.0,78.0,15.0,-22.0,-60.0,-34.0,156.0,79.0,22.0,-406.0,691.0,16.0,79.0,39.0,-104.0,-576.0,1074.0,21.0,-11.0,-22.0,79.0,-344.0,1176.0,17.0,-78.0,-53.0,-170.0,-211.0,855.0,23.0,-112.0,-43.0,-99.0,-110.0,393.0,25.0,-76.0,-31.0,-135.0,-9.0,-29.0,25.0,-56.0,-14.0,-24.0,103.0,-310.0,16.0,-11.0,-2.0,80.0,119.0,-496.0,7.0,13.0,12.0,143.0,172.0,-488.0,2.0,33.0,13.0,68.0,92.0,-322.0,-3.0,29.0,9.0,8.0,85.0,-150.0,-2.0,18.0,6.0,-23.0,32.0,-33.0,-4.0,9.0,3.0,-28.0,21.0,-1.0RIGHT,-12.0,-72.0,-22.0,140.0,368.0,-863.0,-64.0,38.0,2.0,284.0,363.0,-773.0,-51.0,127.0,66.0,97.0,0.0,-286.0,-27.0,186.0,64.0,-144.0,-319.0,650.0,24.0,94.0,42.0,-96.0,-461.0,1123.0,14.0,13.0,-19.0,38.0,-279.0,1274.0,14.0,-74.0,-36.0,49.0,-195.0,946.0,8.0,-94.0,-34.0,-152.0,-105.0,533.0,17.0,-95.0,-16.0,-24.0,-54.0,140.0,17.0,-77.0,-7.0,-51.0,-35.0,-194.0,23.0,-29.0,-12.0,30.0,3.0,-469.0,14.0,22.0,-16.0,33.0,103.0,-520.0,10.0,38.0,-5.0,71.0,165.0,-398.0,-4.0,26.0,13.0,18.0,149.0,-198.0,-6.0,7.0,17.0,-40.0,68.0,-76.0,-8.0,9.0,10.0,-33.0,4.0,-59.0RIGHT,-11.0,-76.0,-32.0,60.0,354.0,-860.0,-74.0,0.0,15.0,480.0,510.0,-1029.0,-74.0,144.0,59.0,418.0,-98.0,-770.0,-18.0,191.0,76.0,181.0,-235.0,520.0,27.0,132.0,33.0,-343.0,-536.0,1207.0,40.0,22.0,-10.0,-182.0,-170.0,1503.0,6.0,-67.0,-31.0,-219.0,-196.0,1085.0,0.0,-93.0,-33.0,-139.0,-172.0,611.0,5.0,-100.0,-23.0,-303.0,-171.0,202.0,18.0,-83.0,-25.0,-112.0,-77.0,-242.0,40.0,-41.0,-12.0,109.0,64.0,-570.0,27.0,-2.0,0.0,291.0,193.0,-537.0,9.0,21.0,14.0,231.0,174.0,-434.0,-10.0,38.0,11.0,-26.0,102.0,-196.0,-7.0,26.0,9.0,-50.0,45.0,-115.0,-3.0,19.0,5.0,-67.0,-4.0,-38.0RIGHT,0.0,-93.0,-43.0,-41.0,270.0,-805.0,-37.0,-20.0,-7.0,338.0,466.0,-967.0,-76.0,119.0,31.0,220.0,65.0,-555.0,-57.0,186.0,82.0,237.0,-33.0,417.0,-11.0,144.0,60.0,-309.0,-473.0,1044.0,30.0,43.0,21.0,-46.0,-301.0,1206.0,25.0,-49.0,-25.0,-199.0,-395.0,1006.0,20.0,-84.0,-39.0,-51.0,-164.0,765.0,15.0,-103.0,-28.0,-175.0,-131.0,406.0,16.0,-76.0,-23.0,-42.0,-22.0,69.0,22.0,-57.0,-15.0,149.0,2.0,-276.0,17.0,-25.0,-9.0,245.0,145.0,-524.0,13.0,31.0,1.0,-67.0,120.0,-613.0,1.0,33.0,9.0,-91.0,126.0,-378.0,2.0,22.0,19.0,-51.0,82.0,-233.0,-2.0,5.0,14.0,86.0,29.0,-51.0RIGHT,11.0,-98.0,-42.0,53.0,384.0,-683.0,-47.0,-51.0,-1.0,416.0,547.0,-1014.0,-113.0,92.0,40.0,316.0,26.0,-1044.0,-52.0,214.0,78.0,269.0,-299.0,-16.0,0.0,185.0,46.0,-344.0,-493.0,1016.0,61.0,79.0,15.0,-52.0,-250.0,1562.0,8.0,-56.0,-25.0,-215.0,-122.0,1391.0,8.0,-79.0,-27.0,-44.0,-154.0,949.0,0.0,-113.0,-25.0,-546.0,-119.0,502.0,21.0,-142.0,-25.0,-148.0,-216.0,-2.0,37.0,-98.0,-25.0,-60.0,-43.0,-674.0,45.0,-5.0,-9.0,366.0,123.0,-815.0,18.0,57.0,9.0,131.0,211.0,-641.0,-6.0,54.0,9.0,132.0,114.0,-190.0,-11.0,20.0,9.0,93.0,89.0,-4.0,-6.0,24.0,4.0,3.0,57.0,-17.0RIGHT,-12.0,-85.0,-44.0,-37.0,401.0,-1033.0,-59.0,-9.0,15.0,753.0,606.0,-1065.0,-58.0,171.0,70.0,407.0,-118.0,-521.0,-53.0,185.0,75.0,269.0,-318.0,691.0,19.0,145.0,30.0,-535.0,-612.0,1227.0,16.0,-12.0,-13.0,-140.0,-153.0,1421.0,33.0,-41.0,-14.0,-311.0,-149.0,1066.0,4.0,-92.0,-19.0,-144.0,-259.0,708.0,2.0,-112.0,-23.0,-293.0,-269.0,262.0,26.0,-106.0,-34.0,-146.0,-253.0,-111.0,40.0,-63.0,-36.0,-234.0,-30.0,-529.0,41.0,-18.0,-18.0,73.0,178.0,-665.0,16.0,39.0,0.0,141.0,234.0,-650.0,0.0,27.0,7.0,73.0,181.0,-282.0,-4.0,27.0,1.0,-135.0,90.0,-117.0,5.0,-15.0,5.0,209.0,123.0,-2.0RIGHT,-14.0,27.0,-79.0,-160.0,758.0,221.0,-55.0,-2.0,-2.0,-392.0,1122.0,368.0,-55.0,-69.0,138.0,308.0,751.0,192.0,-28.0,-80.0,215.0,-79.0,-338.0,-44.0,15.0,-46.0,141.0,284.0,-1316.0,-419.0,29.0,19.0,2.0,-191.0,-1533.0,-418.0,19.0,38.0,-103.0,467.0,-1063.0,-283.0,16.0,32.0,-113.0,269.0,-464.0,-52.0,12.0,23.0,-77.0,-104.0,-52.0,-5.0,17.0,9.0,-41.0,-224.0,253.0,-9.0,13.0,9.0,-11.0,-121.0,321.0,1.0,9.0,-3.0,9.0,73.0,376.0,36.0,8.0,10.0,8.0,-124.0,263.0,80.0,2.0,-6.0,23.0,-90.0,263.0,34.0,3.0,6.0,13.0,-197.0,145.0,42.0,-5.0,-8.0,9.0,-32.0,116.0,-1.0RIGHT,-6.0,30.0,-90.0,9.0,651.0,184.0,-26.0,-1.0,-21.0,-123.0,1086.0,362.0,-46.0,-59.0,106.0,258.0,803.0,155.0,-29.0,-68.0,177.0,-126.0,-160.0,109.0,-9.0,-55.0,138.0,49.0,-1118.0,-236.0,17.0,-7.0,24.0,114.0,-1249.0,-239.0,15.0,8.0,-44.0,598.0,-972.0,-380.0,13.0,31.0,-85.0,313.0,-561.0,-215.0,14.0,33.0,-77.0,69.0,-221.0,-109.0,20.0,35.0,-67.0,-457.0,67.0,4.0,21.0,23.0,-36.0,-120.0,348.0,4.0,15.0,10.0,2.0,-194.0,443.0,18.0,7.0,-1.0,30.0,-53.0,353.0,61.0,-3.0,-8.0,27.0,-101.0,154.0,79.0,-3.0,-8.0,13.0,26.0,83.0,119.0,-5.0,-7.0,3.0,53.0,31.0,43.0RIGHT,-27.0,45.0,-67.0,-59.0,626.0,143.0,-29.0,-7.0,25.0,-352.0,898.0,282.0,-29.0,-52.0,116.0,32.0,318.0,164.0,3.0,-117.0,162.0,276.0,-414.0,-132.0,4.0,-28.0,73.0,535.0,-1170.0,-482.0,8.0,28.0,-23.0,438.0,-1084.0,-330.0,8.0,75.0,-83.0,-81.0,-790.0,-119.0,8.0,22.0,-82.0,336.0,-292.0,45.0,9.0,2.0,-66.0,-428.0,33.0,-14.0,15.0,6.0,-34.0,-207.0,334.0,-23.0,18.0,7.0,-4.0,-415.0,483.0,-2.0,10.0,12.0,17.0,122.0,454.0,-6.0,-1.0,-5.0,28.0,100.0,278.0,19.0,-1.0,5.0,16.0,-127.0,50.0,-3.0,7.0,-5.0,8.0,-121.0,-20.0,72.0,4.0,-3.0,9.0,-12.0,-16.0,82.0RIGHT,-18.0,7.0,-24.0,41.0,942.0,267.0,-54.0,-31.0,67.0,88.0,973.0,266.0,-37.0,-56.0,172.0,466.0,226.0,59.0,-7.0,-38.0,139.0,162.0,-554.0,-158.0,9.0,27.0,57.0,-64.0,-1564.0,-413.0,24.0,11.0,-45.0,-281.0,-1253.0,-158.0,14.0,9.0,-61.0,-58.0,-1108.0,-49.0,19.0,-8.0,-85.0,128.0,-335.0,54.0,6.0,25.0,-70.0,-92.0,-130.0,-145.0,5.0,5.0,-46.0,-135.0,253.0,-133.0,22.0,0.0,-20.0,-77.0,446.0,-63.0,11.0,-2.0,-2.0,208.0,473.0,34.0,13.0,4.0,14.0,45.0,325.0,86.0,-3.0,-7.0,21.0,64.0,207.0,28.0,0.0,8.0,11.0,-176.0,111.0,35.0,-8.0,1.0,8.0,-7.0,64.0,27.0RIGHT,-12.0,7.0,-70.0,-130.0,478.0,147.0,-36.0,22.0,-40.0,-49.0,942.0,171.0,-40.0,-31.0,74.0,333.0,1107.0,389.0,-35.0,-26.0,146.0,212.0,289.0,268.0,-5.0,-62.0,146.0,-29.0,-744.0,-27.0,12.0,-29.0,61.0,40.0,-1396.0,-462.0,19.0,-4.0,-29.0,138.0,-1266.0,-495.0,15.0,29.0,-68.0,239.0,-832.0,-281.0,6.0,33.0,-79.0,61.0,-376.0,-89.0,12.0,23.0,-53.0,-107.0,-45.0,-6.0,14.0,1.0,-37.0,-50.0,223.0,28.0,15.0,9.0,-20.0,-226.0,327.0,16.0,12.0,-2.0,-5.0,-77.0,393.0,-5.0,7.0,4.0,1.0,10.0,336.0,11.0,8.0,5.0,7.0,-28.0,232.0,37.0,2.0,6.0,9.0,-78.0,148.0,76.0RIGHT,-26.0,23.0,-59.0,-14.0,602.0,238.0,-40.0,-16.0,11.0,286.0,1234.0,490.0,-39.0,-32.0,76.0,203.0,1233.0,429.0,-32.0,-64.0,158.0,264.0,254.0,0.0,8.0,-40.0,107.0,-99.0,-845.0,-484.0,16.0,-1.0,81.0,-252.0,-1488.0,-640.0,35.0,12.0,-35.0,11.0,-1307.0,-314.0,5.0,31.0,-67.0,105.0,-1006.0,-58.0,6.0,16.0,-96.0,295.0,-460.0,41.0,4.0,28.0,-85.0,-275.0,-158.0,-117.0,16.0,14.0,-49.0,-202.0,286.0,-108.0,26.0,-2.0,-17.0,48.0,557.0,25.0,12.0,4.0,16.0,191.0,568.0,138.0,3.0,3.0,15.0,97.0,326.0,119.0,-4.0,-1.0,13.0,-75.0,160.0,54.0,1.0,1.0,8.0,-193.0,53.0,70.0RIGHT,-18.0,8.0,-96.0,-129.0,509.0,301.0,-23.0,-17.0,-12.0,87.0,1605.0,427.0,-53.0,-34.0,76.0,471.0,1540.0,384.0,-39.0,-15.0,162.0,193.0,212.0,-51.0,-23.0,-45.0,126.0,-141.0,-1192.0,-355.0,18.0,-23.0,82.0,-164.0,-1608.0,-578.0,26.0,-21.0,-10.0,-72.0,-1328.0,-239.0,17.0,31.0,-85.0,371.0,-995.0,-136.0,9.0,25.0,-96.0,15.0,-564.0,-82.0,17.0,18.0,-74.0,-71.0,-114.0,-202.0,10.0,26.0,-41.0,-445.0,220.0,-166.0,28.0,6.0,-22.0,135.0,500.0,28.0,15.0,1.0,2.0,119.0,676.0,145.0,14.0,-11.0,11.0,307.0,503.0,143.0,-10.0,2.0,18.0,-233.0,255.0,50.0,2.0,2.0,11.0,-67.0,28.0,26.0RIGHT,-27.0,0.0,-28.0,110.0,1521.0,414.0,-39.0,-13.0,45.0,605.0,1268.0,255.0,-51.0,-30.0,152.0,435.0,266.0,-116.0,-19.0,-47.0,163.0,-289.0,-1228.0,-337.0,0.0,-16.0,92.0,-599.0,-1529.0,-322.0,33.0,-13.0,-23.0,-457.0,-1198.0,-17.0,18.0,16.0,-83.0,292.0,-980.0,-179.0,6.0,11.0,-86.0,179.0,-565.0,-137.0,10.0,27.0,-74.0,-65.0,-99.0,-175.0,14.0,18.0,-51.0,22.0,281.0,-120.0,31.0,12.0,-35.0,-53.0,461.0,11.0,21.0,-2.0,-8.0,492.0,508.0,125.0,9.0,1.0,9.0,-14.0,415.0,187.0,-3.0,-12.0,27.0,7.0,318.0,80.0,-6.0,-6.0,28.0,-143.0,142.0,51.0,-6.0,-7.0,18.0,-21.0,42.0,21.0RIGHT,-24.0,36.0,-82.0,-321.0,507.0,301.0,-40.0,-13.0,-6.0,-32.0,1386.0,760.0,-58.0,-75.0,83.0,481.0,1388.0,590.0,-43.0,-53.0,166.0,565.0,309.0,-39.0,-22.0,-48.0,145.0,92.0,-1195.0,-675.0,33.0,7.0,54.0,-215.0,-1696.0,-624.0,35.0,2.0,-40.0,-34.0,-1310.0,-293.0,37.0,32.0,-87.0,151.0,-756.0,-86.0,0.0,30.0,-82.0,-107.0,-374.0,-88.0,13.0,21.0,-56.0,-173.0,-57.0,-109.0,7.0,19.0,-43.0,-124.0,231.0,-87.0,21.0,7.0,-13.0,47.0,470.0,8.0,19.0,-1.0,1.0,-59.0,444.0,73.0,11.0,1.0,6.0,-18.0,378.0,146.0,3.0,-6.0,8.0,-34.0,259.0,138.0,-4.0,-8.0,13.0,114.0,207.0,87.0RIGHT,-12.0,29.0,-66.0,-158.0,470.0,223.0,-30.0,8.0,-24.0,179.0,1256.0,570.0,-36.0,-44.0,62.0,538.0,1535.0,549.0,-61.0,-62.0,142.0,600.0,562.0,12.0,-29.0,-62.0,149.0,38.0,-796.0,-493.0,0.0,10.0,101.0,-421.0,-1718.0,-631.0,47.0,-3.0,2.0,-303.0,-1574.0,-235.0,20.0,28.0,-73.0,-37.0,-1177.0,-165.0,15.0,8.0,-93.0,267.0,-596.0,-35.0,9.0,34.0,-93.0,-141.0,-273.0,-84.0,24.0,19.0,-61.0,-209.0,238.0,-11.0,16.0,5.0,-40.0,-29.0,611.0,24.0,20.0,2.0,7.0,33.0,781.0,65.0,8.0,-4.0,22.0,295.0,564.0,108.0,0.0,-10.0,31.0,-146.0,235.0,63.0,-5.0,-7.0,21.0,93.0,89.0,17.0RIGHT,-25.0,32.0,-86.0,17.0,711.0,387.0,-20.0,-28.0,3.0,632.0,1681.0,620.0,-42.0,-50.0,93.0,839.0,1544.0,296.0,-36.0,-21.0,148.0,161.0,276.0,-128.0,-52.0,-59.0,128.0,60.0,-1099.0,-489.0,8.0,11.0,81.0,-600.0,-1690.0,-431.0,37.0,-18.0,16.0,-89.0,-1564.0,-142.0,35.0,57.0,-79.0,-521.0,-1355.0,-31.0,25.0,7.0,-99.0,32.0,-662.0,51.0,7.0,-10.0,-108.0,-205.0,-126.0,-144.0,26.0,14.0,-59.0,81.0,658.0,-132.0,19.0,0.0,-22.0,244.0,830.0,8.0,15.0,9.0,23.0,273.0,707.0,92.0,-4.0,-4.0,30.0,137.0,315.0,113.0,-7.0,-11.0,28.0,-62.0,144.0,41.0,-5.0,0.0,16.0,-89.0,32.0,-2.0RIGHT,-6.0,12.0,-76.0,-316.0,545.0,83.0,-27.0,14.0,-22.0,18.0,1397.0,316.0,-41.0,-20.0,54.0,689.0,1482.0,401.0,-61.0,-33.0,161.0,743.0,470.0,12.0,-20.0,-50.0,152.0,-5.0,-1253.0,-367.0,11.0,11.0,109.0,-673.0,-1801.0,-411.0,51.0,4.0,-27.0,-334.0,-1682.0,-16.0,20.0,21.0,-99.0,139.0,-970.0,72.0,12.0,-1.0,-115.0,275.0,-563.0,-63.0,1.0,12.0,-86.0,-141.0,-19.0,-140.0,16.0,15.0,-50.0,-65.0,463.0,-110.0,15.0,0.0,-9.0,41.0,697.0,-54.0,11.0,11.0,6.0,164.0,569.0,0.0,6.0,-8.0,25.0,91.0,389.0,61.0,0.0,-1.0,16.0,29.0,203.0,63.0,-2.0,-9.0,25.0,-60.0,148.0,57.0RIGHT,-24.0,29.0,-72.0,-138.0,932.0,352.0,-33.0,-65.0,22.0,416.0,1732.0,450.0,-62.0,-81.0,129.0,637.0,1168.0,48.0,-25.0,-48.0,160.0,161.0,-282.0,-288.0,-18.0,40.0,132.0,-72.0,-1612.0,-513.0,32.0,41.0,22.0,-361.0,-1694.0,-155.0,29.0,5.0,-41.0,54.0,-1361.0,4.0,23.0,-3.0,-102.0,-199.0,-878.0,-18.0,25.0,8.0,-89.0,-47.0,-350.0,-84.0,17.0,3.0,-62.0,-81.0,138.0,-146.0,17.0,8.0,-34.0,137.0,493.0,-48.0,11.0,2.0,0.0,-49.0,578.0,2.0,3.0,9.0,8.0,152.0,514.0,50.0,5.0,-4.0,21.0,-54.0,336.0,79.0,-2.0,-3.0,11.0,158.0,190.0,70.0,0.0,-3.0,12.0,-138.0,61.0,54.0RIGHT,-24.0,30.0,-73.0,-83.0,731.0,243.0,-27.0,-28.0,9.0,159.0,1558.0,522.0,-48.0,-80.0,130.0,805.0,1096.0,177.0,-31.0,-56.0,191.0,303.0,-31.0,-92.0,-25.0,-4.0,146.0,-120.0,-1559.0,-422.0,16.0,32.0,13.0,-649.0,-1790.0,-258.0,25.0,17.0,-78.0,-88.0,-1450.0,-183.0,25.0,17.0,-113.0,123.0,-827.0,-133.0,18.0,16.0,-91.0,28.0,-297.0,-36.0,17.0,8.0,-59.0,-80.0,161.0,-68.0,21.0,7.0,-39.0,-64.0,539.0,-2.0,21.0,6.0,-9.0,90.0,686.0,20.0,17.0,-6.0,15.0,1.0,570.0,80.0,7.0,-10.0,20.0,-47.0,306.0,40.0,-5.0,-7.0,12.0,-6.0,142.0,7.0,-9.0,5.0,7.0,31.0,83.0,13.0RIGHT,-11.0,40.0,-72.0,-177.0,744.0,280.0,-24.0,1.0,6.0,158.0,1438.0,447.0,-55.0,-63.0,93.0,373.0,1170.0,410.0,-53.0,-61.0,168.0,262.0,60.0,-149.0,-2.0,-67.0,155.0,210.0,-1310.0,-416.0,26.0,27.0,63.0,-253.0,-1902.0,-461.0,26.0,13.0,-39.0,127.0,-1612.0,26.0,-7.0,52.0,-115.0,-158.0,-1216.0,28.0,11.0,5.0,-112.0,112.0,-477.0,-11.0,22.0,1.0,-80.0,-306.0,222.0,-216.0,34.0,8.0,-47.0,-226.0,767.0,-111.0,19.0,5.0,4.0,-99.0,944.0,-68.0,19.0,9.0,27.0,173.0,578.0,49.0,-1.0,-7.0,34.0,240.0,316.0,64.0,3.0,3.0,18.0,-34.0,63.0,104.0,-6.0,-2.0,9.0,-106.0,-8.0,84.0RIGHT,-12.0,-17.0,-28.0,455.0,1324.0,351.0,-41.0,-29.0,43.0,198.0,1475.0,186.0,-46.0,-38.0,143.0,512.0,727.0,-98.0,-43.0,-13.0,151.0,-377.0,-945.0,-376.0,-7.0,14.0,105.0,-184.0,-1724.0,-305.0,28.0,10.0,-3.0,-464.0,-1823.0,-148.0,24.0,12.0,-76.0,79.0,-1256.0,4.0,25.0,-2.0,-113.0,197.0,-656.0,23.0,17.0,7.0,-89.0,56.0,-15.0,14.0,23.0,0.0,-42.0,-122.0,417.0,-48.0,24.0,7.0,-22.0,-189.0,573.0,8.0,10.0,3.0,6.0,141.0,594.0,-20.0,8.0,3.0,6.0,18.0,440.0,67.0,0.0,-10.0,22.0,77.0,286.0,-8.0,-4.0,0.0,20.0,1.0,154.0,65.0,-5.0,-3.0,11.0,-42.0,34.0,17.0RIGHT,-15.0,30.0,-79.0,-264.0,398.0,100.0,-10.0,-1.0,-21.0,34.0,1229.0,337.0,-29.0,-45.0,72.0,443.0,1467.0,390.0,-25.0,-46.0,136.0,483.0,396.0,32.0,-20.0,-14.0,130.0,-190.0,-841.0,-255.0,1.0,-5.0,61.0,-62.0,-1548.0,-394.0,30.0,18.0,-13.0,-193.0,-1357.0,-197.0,23.0,0.0,-76.0,361.0,-970.0,-59.0,16.0,41.0,-68.0,-28.0,-600.0,-2.0,6.0,-8.0,-61.0,90.0,-89.0,35.0,7.0,12.0,-34.0,-121.0,158.0,-50.0,6.0,9.0,-44.0,-130.0,402.0,18.0,7.0,7.0,2.0,20.0,560.0,19.0,1.0,-4.0,11.0,145.0,464.0,78.0,1.0,-13.0,24.0,-13.0,276.0,32.0,-2.0,-4.0,12.0,-94.0,133.0,36.0RIGHT,-7.0,18.0,-65.0,-76.0,710.0,90.0,-19.0,-6.0,-7.0,156.0,1417.0,292.0,-36.0,-27.0,79.0,463.0,1287.0,393.0,-45.0,-40.0,125.0,414.0,305.0,7.0,-35.0,-25.0,150.0,-85.0,-1135.0,-353.0,-12.0,-5.0,84.0,-249.0,-1731.0,-514.0,35.0,12.0,5.0,-248.0,-1744.0,-123.0,36.0,22.0,-91.0,68.0,-1127.0,108.0,32.0,12.0,-93.0,209.0,-558.0,177.0,1.0,14.0,-75.0,-124.0,-97.0,52.0,7.0,-12.0,-45.0,-157.0,297.0,-113.0,11.0,1.0,-23.0,-208.0,592.0,-166.0,18.0,-3.0,-2.0,106.0,621.0,-95.0,13.0,4.0,16.0,14.0,450.0,13.0,2.0,5.0,16.0,213.0,290.0,89.0,0.0,-9.0,20.0,-37.0,168.0,68.0RIGHT,-10.0,34.0,-96.0,-327.0,414.0,129.0,-21.0,4.0,-54.0,256.0,1509.0,292.0,-37.0,-45.0,68.0,358.0,2011.0,312.0,-48.0,-67.0,150.0,677.0,799.0,-5.0,-31.0,1.0,173.0,-195.0,-1053.0,-152.0,-22.0,24.0,100.0,-128.0,-2065.0,-184.0,16.0,14.0,14.0,-423.0,-1923.0,-53.0,22.0,-25.0,-84.0,166.0,-1284.0,-56.0,35.0,-5.0,-114.0,37.0,-803.0,-123.0,28.0,18.0,-97.0,-42.0,-174.0,-87.0,21.0,10.0,-50.0,-124.0,360.0,-124.0,17.0,16.0,-28.0,-19.0,737.0,-62.0,12.0,11.0,3.0,66.0,784.0,-3.0,10.0,2.0,14.0,20.0,528.0,56.0,3.0,-13.0,27.0,-65.0,305.0,61.0,1.0,-11.0,24.0,131.0,175.0,27.0RIGHT,-10.0,33.0,-83.0,-39.0,447.0,181.0,-38.0,16.0,-65.0,207.0,1201.0,426.0,-27.0,-57.0,79.0,392.0,1828.0,419.0,-55.0,-79.0,143.0,812.0,977.0,174.0,-34.0,-30.0,205.0,137.0,-629.0,-355.0,-25.0,25.0,101.0,-151.0,-2180.0,-424.0,38.0,37.0,12.0,-733.0,-2162.0,-282.0,43.0,-9.0,-85.0,162.0,-1423.0,97.0,17.0,-8.0,-126.0,-208.0,-673.0,25.0,12.0,3.0,-86.0,361.0,-79.0,-82.0,22.0,17.0,-64.0,-386.0,367.0,-167.0,40.0,19.0,-23.0,167.0,788.0,-33.0,24.0,7.0,1.0,-268.0,766.0,37.0,4.0,-1.0,21.0,81.0,553.0,35.0,-4.0,-6.0,29.0,37.0,245.0,41.0,-7.0,-6.0,18.0,111.0,101.0,27.0LEFT,-28.0,16.0,-16.0,-163.0,-124.0,956.0,-19.0,-96.0,-50.0,-185.0,-94.0,769.0,25.0,-166.0,-52.0,-329.0,-85.0,-212.0,59.0,-110.0,-38.0,71.0,59.0,-1037.0,59.0,-18.0,-11.0,162.0,302.0,-1164.0,7.0,60.0,10.0,103.0,436.0,-773.0,-27.0,53.0,33.0,75.0,307.0,-439.0,-34.0,49.0,37.0,117.0,134.0,-230.0,-31.0,56.0,31.0,70.0,-39.0,-62.0,-10.0,40.0,19.0,11.0,-129.0,66.0,11.0,30.0,7.0,-121.0,-168.0,255.0,26.0,5.0,-1.0,-20.0,-116.0,352.0,20.0,0.0,-9.0,-33.0,-80.0,395.0,6.0,-12.0,-13.0,26.0,-47.0,305.0,3.0,-23.0,-8.0,-10.0,-12.0,208.0,-1.0,-17.0,-4.0,29.0,-11.0,95.0LEFT,2.0,-127.0,-39.0,-312.0,-58.0,77.0,41.0,-122.0,-37.0,-60.0,57.0,-782.0,49.0,-45.0,-21.0,61.0,254.0,-1026.0,24.0,37.0,-3.0,230.0,348.0,-1059.0,-13.0,54.0,22.0,110.0,307.0,-495.0,-27.0,44.0,28.0,77.0,182.0,-213.0,-20.0,33.0,27.0,44.0,65.0,-66.0,-10.0,34.0,21.0,116.0,-4.0,29.0,0.0,16.0,15.0,135.0,-33.0,124.0,6.0,25.0,6.0,-39.0,-127.0,211.0,8.0,15.0,3.0,-117.0,-157.0,254.0,8.0,13.0,-5.0,-140.0,-160.0,287.0,8.0,-16.0,-6.0,26.0,-82.0,256.0,5.0,-16.0,-9.0,-33.0,-65.0,197.0,2.0,-16.0,-7.0,-20.0,-33.0,60.0,1.0,-5.0,-2.0,2.0,3.0,1.0LEFT,-35.0,83.0,26.0,14.0,-172.0,754.0,-47.0,15.0,-8.0,-230.0,-263.0,1005.0,-22.0,-111.0,-59.0,-519.0,-247.0,749.0,34.0,-173.0,-65.0,-138.0,-18.0,-290.0,62.0,-108.0,-43.0,-19.0,202.0,-967.0,50.0,-16.0,-6.0,346.0,414.0,-1227.0,-5.0,41.0,13.0,106.0,373.0,-966.0,-22.0,48.0,26.0,257.0,291.0,-649.0,-21.0,53.0,33.0,89.0,146.0,-311.0,-4.0,55.0,31.0,44.0,18.0,-23.0,-3.0,49.0,18.0,-33.0,-77.0,247.0,1.0,27.0,12.0,-147.0,-128.0,376.0,0.0,7.0,2.0,-34.0,-108.0,316.0,8.0,1.0,2.0,-59.0,-119.0,237.0,16.0,-5.0,-4.0,52.0,-129.0,195.0,16.0,-14.0,-7.0,12.0,-81.0,241.0LEFT,-35.0,51.0,20.0,136.0,-199.0,896.0,-53.0,-32.0,-22.0,-135.0,-218.0,990.0,-33.0,-117.0,-59.0,-361.0,-210.0,545.0,31.0,-160.0,-78.0,-173.0,-34.0,-554.0,82.0,-89.0,-44.0,93.0,251.0,-1165.0,62.0,-12.0,0.0,315.0,495.0,-1194.0,0.0,51.0,35.0,103.0,450.0,-794.0,-34.0,42.0,33.0,66.0,258.0,-462.0,-33.0,49.0,23.0,161.0,131.0,-308.0,-18.0,51.0,22.0,23.0,-7.0,-122.0,2.0,52.0,22.0,126.0,-30.0,72.0,8.0,39.0,12.0,-101.0,-102.0,275.0,9.0,30.0,6.0,-103.0,-123.0,367.0,4.0,16.0,3.0,-98.0,-178.0,368.0,11.0,-13.0,2.0,-57.0,-149.0,338.0,16.0,-24.0,-5.0,8.0,-87.0,240.0LEFT,-32.0,102.0,15.0,-57.0,-151.0,745.0,-50.0,24.0,-12.0,-33.0,-67.0,983.0,-34.0,-94.0,-47.0,-629.0,-274.0,518.0,20.0,-177.0,-38.0,-36.0,4.0,-398.0,52.0,-111.0,-20.0,-107.0,12.0,-1019.0,49.0,-35.0,-11.0,145.0,304.0,-1159.0,4.0,31.0,5.0,37.0,282.0,-975.0,-19.0,64.0,19.0,97.0,224.0,-754.0,-32.0,66.0,32.0,177.0,50.0,-387.0,-14.0,71.0,26.0,18.0,-62.0,-7.0,13.0,48.0,23.0,24.0,-123.0,320.0,20.0,35.0,2.0,-141.0,-113.0,542.0,19.0,-7.0,-4.0,-9.0,-73.0,562.0,8.0,-19.0,-15.0,-71.0,-56.0,401.0,10.0,-29.0,-9.0,49.0,-27.0,208.0,7.0,-25.0,-7.0,46.0,2.0,56.0LEFT,-44.0,40.0,-6.0,-239.0,-216.0,947.0,-25.0,-88.0,-50.0,-429.0,-193.0,762.0,18.0,-165.0,-68.0,-291.0,-53.0,-10.0,63.0,-154.0,-44.0,169.0,171.0,-858.0,58.0,-37.0,-10.0,135.0,266.0,-1268.0,21.0,24.0,15.0,208.0,372.0,-1122.0,-21.0,62.0,30.0,71.0,270.0,-713.0,-34.0,63.0,30.0,209.0,173.0,-344.0,-30.0,75.0,26.0,159.0,16.0,-85.0,-12.0,65.0,21.0,-57.0,-127.0,153.0,6.0,51.0,10.0,-150.0,-150.0,402.0,16.0,10.0,3.0,-109.0,-101.0,535.0,16.0,-10.0,-6.0,-6.0,-74.0,432.0,12.0,-30.0,-8.0,-27.0,-69.0,224.0,12.0,-21.0,-6.0,4.0,-44.0,45.0,6.0,-12.0,-3.0,-44.0,-19.0,43.0LEFT,-37.0,16.0,10.0,-5.0,-181.0,807.0,-38.0,-38.0,-34.0,-227.0,-225.0,728.0,-5.0,-139.0,-55.0,-193.0,-77.0,155.0,50.0,-138.0,-44.0,-93.0,78.0,-743.0,68.0,-71.0,-11.0,97.0,216.0,-1123.0,37.0,11.0,10.0,286.0,305.0,-1146.0,-16.0,62.0,17.0,195.0,273.0,-659.0,-34.0,44.0,18.0,187.0,190.0,-400.0,-25.0,64.0,15.0,6.0,56.0,-187.0,-9.0,53.0,22.0,156.0,30.0,30.0,3.0,65.0,16.0,-96.0,-106.0,252.0,8.0,27.0,8.0,-3.0,-61.0,424.0,11.0,3.0,2.0,-186.0,-111.0,479.0,10.0,-23.0,0.0,2.0,-50.0,351.0,12.0,-27.0,-1.0,-65.0,-99.0,163.0,4.0,-9.0,-9.0,-22.0,-75.0,42.0LEFT,-39.0,26.0,3.0,157.0,-116.0,834.0,-38.0,-48.0,-37.0,-198.0,-113.0,653.0,4.0,-148.0,-53.0,-164.0,-105.0,79.0,50.0,-132.0,-46.0,-162.0,87.0,-733.0,68.0,-71.0,-21.0,84.0,205.0,-1111.0,31.0,26.0,10.0,208.0,415.0,-1118.0,-18.0,56.0,24.0,108.0,287.0,-721.0,-40.0,60.0,34.0,232.0,172.0,-362.0,-29.0,62.0,32.0,77.0,3.0,-74.0,-11.0,56.0,27.0,59.0,-109.0,208.0,8.0,50.0,9.0,-81.0,-139.0,446.0,16.0,9.0,0.0,-38.0,-111.0,536.0,13.0,-9.0,-12.0,-159.0,-97.0,391.0,5.0,-23.0,-10.0,-60.0,-65.0,154.0,4.0,-10.0,-7.0,-20.0,-49.0,-7.0,4.0,-8.0,-2.0,12.0,-20.0,0.0LEFT,-35.0,33.0,11.0,-21.0,-54.0,935.0,-40.0,-29.0,-26.0,-385.0,-152.0,877.0,-8.0,-154.0,-60.0,-424.0,-216.0,231.0,43.0,-135.0,-52.0,-29.0,0.0,-625.0,60.0,-92.0,-17.0,317.0,207.0,-1018.0,31.0,0.0,18.0,385.0,403.0,-1088.0,-12.0,39.0,20.0,174.0,260.0,-826.0,-28.0,49.0,15.0,266.0,180.0,-567.0,-29.0,69.0,13.0,175.0,74.0,-303.0,-13.0,61.0,21.0,39.0,-21.0,-66.0,4.0,72.0,26.0,-21.0,-106.0,232.0,14.0,40.0,15.0,-113.0,-130.0,494.0,14.0,15.0,3.0,-117.0,-108.0,568.0,10.0,-23.0,-5.0,-147.0,-82.0,411.0,12.0,-26.0,-4.0,-100.0,-54.0,173.0,7.0,-19.0,-9.0,-10.0,-24.0,31.0LEFT,-35.0,49.0,17.0,-17.0,-182.0,772.0,-35.0,-8.0,-29.0,-243.0,-164.0,779.0,-12.0,-108.0,-58.0,-362.0,-161.0,430.0,36.0,-139.0,-63.0,-178.0,-3.0,-284.0,56.0,-111.0,-30.0,111.0,194.0,-789.0,46.0,-46.0,5.0,315.0,327.0,-1063.0,3.0,17.0,24.0,186.0,333.0,-916.0,-23.0,43.0,25.0,178.0,232.0,-689.0,-32.0,57.0,15.0,153.0,114.0,-425.0,-23.0,63.0,11.0,166.0,35.0,-159.0,-7.0,60.0,18.0,13.0,-38.0,115.0,5.0,58.0,19.0,-101.0,-95.0,343.0,10.0,25.0,16.0,-79.0,-101.0,479.0,14.0,-2.0,4.0,-49.0,-149.0,426.0,13.0,-28.0,-7.0,-33.0,-91.0,294.0,17.0,-24.0,-9.0,-50.0,-75.0,119.0LEFT,-42.0,42.0,4.0,-100.0,-173.0,1148.0,-46.0,-58.0,-48.0,-360.0,-207.0,963.0,-15.0,-170.0,-75.0,-461.0,-151.0,36.0,62.0,-145.0,-44.0,106.0,86.0,-943.0,79.0,-68.0,-2.0,279.0,242.0,-1102.0,32.0,18.0,20.0,270.0,368.0,-930.0,-17.0,32.0,12.0,45.0,272.0,-703.0,-33.0,42.0,5.0,106.0,208.0,-624.0,-31.0,49.0,12.0,151.0,118.0,-442.0,-13.0,67.0,26.0,28.0,17.0,-107.0,2.0,65.0,30.0,-1.0,-50.0,235.0,11.0,36.0,26.0,-136.0,-77.0,553.0,12.0,9.0,5.0,-79.0,-138.0,517.0,11.0,-9.0,-9.0,-9.0,-137.0,398.0,15.0,-19.0,-11.0,56.0,-117.0,133.0,10.0,-12.0,-8.0,-6.0,-56.0,95.0LEFT,-49.0,51.0,-11.0,-282.0,-149.0,1115.0,-48.0,-74.0,-34.0,-606.0,-237.0,823.0,7.0,-189.0,-57.0,-286.0,-182.0,-78.0,69.0,-142.0,-35.0,198.0,100.0,-1073.0,83.0,-33.0,-9.0,343.0,251.0,-1121.0,21.0,40.0,18.0,235.0,430.0,-891.0,-27.0,35.0,17.0,36.0,243.0,-586.0,-37.0,37.0,15.0,241.0,175.0,-449.0,-27.0,51.0,15.0,130.0,57.0,-258.0,-7.0,63.0,26.0,116.0,-30.0,-16.0,6.0,62.0,19.0,-51.0,-101.0,246.0,10.0,36.0,14.0,-168.0,-134.0,441.0,6.0,9.0,-1.0,-177.0,-116.0,437.0,12.0,-23.0,-2.0,-68.0,-96.0,360.0,12.0,-26.0,-7.0,-47.0,-58.0,167.0,13.0,-19.0,-7.0,0.0,-41.0,81.0LEFT,5.0,-109.0,-58.0,-121.0,-173.0,-173.0,60.0,-117.0,-46.0,121.0,152.0,-529.0,58.0,-43.0,-20.0,112.0,314.0,-723.0,33.0,-16.0,6.0,93.0,384.0,-739.0,-8.0,12.0,16.0,47.0,263.0,-727.0,-26.0,36.0,9.0,174.0,220.0,-608.0,-31.0,57.0,10.0,186.0,173.0,-359.0,-19.0,53.0,18.0,104.0,100.0,-130.0,-9.0,59.0,26.0,-23.0,-12.0,101.0,3.0,41.0,24.0,-47.0,-89.0,304.0,11.0,18.0,17.0,-107.0,-154.0,434.0,12.0,-2.0,2.0,-83.0,-164.0,403.0,13.0,-18.0,-6.0,-36.0,-110.0,280.0,7.0,-13.0,-11.0,-38.0,-92.0,132.0,5.0,-14.0,-10.0,12.0,-37.0,55.0,3.0,-7.0,-3.0,-25.0,-45.0,12.0LEFT,-60.0,48.0,7.0,-327.0,-342.0,801.0,-21.0,-73.0,-50.0,-321.0,-392.0,571.0,29.0,-135.0,-86.0,-313.0,-175.0,-54.0,79.0,-146.0,-58.0,304.0,209.0,-645.0,53.0,-45.0,-18.0,281.0,479.0,-952.0,17.0,15.0,9.0,141.0,492.0,-976.0,-19.0,50.0,24.0,122.0,408.0,-735.0,-25.0,63.0,37.0,74.0,221.0,-391.0,-27.0,68.0,35.0,39.0,54.0,-63.0,-11.0,45.0,27.0,-19.0,-49.0,177.0,1.0,25.0,19.0,-33.0,-93.0,301.0,7.0,4.0,7.0,-32.0,-105.0,318.0,11.0,1.0,1.0,-91.0,-140.0,255.0,7.0,2.0,-7.0,-58.0,-141.0,207.0,4.0,-8.0,-7.0,4.0,-85.0,139.0,-1.0,-5.0,-5.0,15.0,-63.0,104.0LEFT,-45.0,64.0,24.0,-125.0,-256.0,913.0,-50.0,5.0,-20.0,-355.0,-395.0,979.0,-32.0,-168.0,-78.0,-447.0,-280.0,506.0,51.0,-174.0,-96.0,-139.0,-35.0,-608.0,96.0,-122.0,-67.0,138.0,383.0,-1195.0,72.0,4.0,-6.0,384.0,645.0,-1320.0,-3.0,49.0,39.0,385.0,618.0,-856.0,-47.0,80.0,52.0,208.0,331.0,-409.0,-40.0,61.0,42.0,148.0,160.0,-114.0,-22.0,70.0,40.0,98.0,-55.0,71.0,1.0,47.0,28.0,-42.0,-128.0,256.0,10.0,35.0,13.0,-153.0,-225.0,362.0,10.0,7.0,-2.0,-210.0,-206.0,384.0,2.0,-14.0,-6.0,-54.0,-150.0,251.0,8.0,-16.0,-2.0,-53.0,-117.0,153.0,10.0,-14.0,-4.0,-34.0,-74.0,112.0LEFT,-33.0,59.0,32.0,-37.0,-193.0,714.0,-46.0,23.0,-8.0,-240.0,-288.0,940.0,-15.0,-104.0,-50.0,-445.0,-254.0,535.0,22.0,-146.0,-72.0,-195.0,-146.0,-153.0,69.0,-126.0,-49.0,52.0,171.0,-795.0,58.0,-20.0,-21.0,222.0,344.0,-1006.0,23.0,22.0,13.0,284.0,502.0,-922.0,-23.0,42.0,26.0,203.0,337.0,-701.0,-33.0,35.0,27.0,168.0,221.0,-458.0,-22.0,57.0,25.0,-45.0,57.0,-217.0,-5.0,51.0,27.0,93.0,9.0,44.0,3.0,38.0,21.0,-121.0,-91.0,274.0,2.0,30.0,9.0,-70.0,-112.0,342.0,3.0,17.0,1.0,-139.0,-153.0,335.0,8.0,-5.0,-2.0,55.0,-79.0,280.0,10.0,-24.0,-2.0,-11.0,-94.0,213.0LEFT,-47.0,61.0,24.0,23.0,-250.0,707.0,-54.0,-10.0,-19.0,-285.0,-305.0,732.0,-11.0,-122.0,-68.0,-387.0,-313.0,259.0,54.0,-160.0,-74.0,-248.0,-21.0,-360.0,71.0,-117.0,-46.0,385.0,346.0,-926.0,43.0,2.0,-10.0,197.0,508.0,-1044.0,-10.0,41.0,24.0,328.0,554.0,-838.0,-32.0,80.0,37.0,-24.0,276.0,-447.0,-31.0,56.0,40.0,184.0,143.0,-199.0,-12.0,55.0,34.0,-20.0,-39.0,43.0,0.0,37.0,27.0,104.0,-72.0,189.0,8.0,36.0,13.0,-133.0,-197.0,360.0,4.0,21.0,-2.0,-55.0,-199.0,368.0,8.0,4.0,-10.0,-70.0,-159.0,333.0,14.0,-32.0,-9.0,14.0,-74.0,212.0,14.0,-29.0,-4.0,-8.0,-36.0,76.0LEFT,-47.0,53.0,5.0,41.0,-200.0,883.0,-43.0,-22.0,-40.0,-267.0,-236.0,772.0,-9.0,-143.0,-54.0,-281.0,-207.0,259.0,48.0,-149.0,-55.0,-219.0,-31.0,-583.0,75.0,-97.0,-37.0,188.0,314.0,-980.0,43.0,3.0,-4.0,210.0,498.0,-1070.0,1.0,37.0,23.0,154.0,464.0,-806.0,-32.0,52.0,36.0,146.0,269.0,-554.0,-38.0,66.0,34.0,64.0,74.0,-214.0,-21.0,62.0,32.0,136.0,-18.0,0.0,-4.0,63.0,18.0,-121.0,-156.0,278.0,9.0,27.0,6.0,-22.0,-121.0,355.0,14.0,2.0,-3.0,-94.0,-150.0,353.0,15.0,-18.0,-3.0,10.0,-82.0,304.0,15.0,-23.0,-6.0,-32.0,-82.0,193.0,8.0,-17.0,-5.0,-27.0,-53.0,126.0LEFT,-51.0,44.0,-7.0,82.0,-164.0,1101.0,-53.0,-91.0,-67.0,-536.0,-143.0,772.0,20.0,-218.0,-86.0,-544.0,-125.0,-352.0,83.0,-159.0,-57.0,-248.0,165.0,-1326.0,78.0,-22.0,-3.0,311.0,366.0,-1605.0,4.0,91.0,31.0,337.0,513.0,-982.0,-45.0,86.0,49.0,261.0,307.0,-430.0,-32.0,80.0,41.0,-51.0,35.0,-2.0,-9.0,54.0,29.0,144.0,-27.0,226.0,5.0,36.0,16.0,-100.0,-141.0,396.0,10.0,4.0,1.0,93.0,-116.0,386.0,3.0,-1.0,-8.0,-69.0,-132.0,286.0,5.0,-14.0,-9.0,37.0,-86.0,160.0,5.0,-12.0,-3.0,-31.0,-70.0,92.0,11.0,-18.0,3.0,-64.0,-61.0,69.0,3.0,-7.0,0.0,-78.0,-77.0,41.0LEFT,-51.0,50.0,10.0,-165.0,-247.0,896.0,-42.0,-29.0,-27.0,-218.0,-327.0,824.0,-12.0,-149.0,-61.0,-398.0,-240.0,357.0,67.0,-154.0,-64.0,87.0,37.0,-536.0,77.0,-103.0,-43.0,102.0,348.0,-1019.0,43.0,-16.0,-12.0,327.0,508.0,-1312.0,-16.0,53.0,23.0,102.0,491.0,-970.0,-45.0,77.0,42.0,287.0,334.0,-489.0,-40.0,83.0,42.0,45.0,87.0,-79.0,-26.0,82.0,33.0,-48.0,-100.0,164.0,5.0,45.0,22.0,-173.0,-147.0,456.0,14.0,6.0,13.0,24.0,-167.0,533.0,22.0,-29.0,1.0,17.0,-175.0,383.0,17.0,-13.0,-13.0,13.0,-182.0,152.0,12.0,-14.0,-18.0,-64.0,-102.0,70.0,4.0,-7.0,-11.0,8.0,-18.0,58.0LEFT,-29.0,-19.0,65.0,68.0,-558.0,-105.0,-43.0,6.0,26.0,-258.0,-932.0,-237.0,-35.0,46.0,-95.0,-143.0,-966.0,-192.0,17.0,40.0,-149.0,-258.0,-129.0,-173.0,50.0,50.0,-149.0,311.0,727.0,48.0,60.0,21.0,-50.0,131.0,1294.0,269.0,19.0,7.0,15.0,334.0,1181.0,424.0,-10.0,-42.0,71.0,-37.0,802.0,345.0,-24.0,-44.0,74.0,15.0,396.0,99.0,-21.0,-26.0,64.0,-225.0,40.0,-48.0,-6.0,-8.0,47.0,-212.0,-207.0,-57.0,7.0,-9.0,35.0,88.0,-328.0,-51.0,15.0,-3.0,13.0,60.0,-422.0,-14.0,16.0,-4.0,-8.0,161.0,-351.0,-30.0,7.0,5.0,-17.0,1.0,-226.0,-54.0,4.0,2.0,-12.0,23.0,-69.0,-70.0LEFT,-48.0,-2.0,46.0,-242.0,-878.0,-199.0,-54.0,28.0,-42.0,-39.0,-1103.0,-370.0,-6.0,70.0,-145.0,-164.0,-456.0,-277.0,47.0,53.0,-158.0,85.0,507.0,21.0,69.0,40.0,-94.0,57.0,1239.0,384.0,35.0,4.0,-2.0,-137.0,1299.0,447.0,-1.0,-31.0,56.0,213.0,1020.0,345.0,-27.0,-38.0,80.0,221.0,599.0,205.0,-20.0,-29.0,81.0,-101.0,139.0,128.0,-14.0,-26.0,70.0,-268.0,-275.0,57.0,0.0,-16.0,41.0,-126.0,-441.0,-33.0,8.0,-20.0,15.0,61.0,-433.0,-114.0,16.0,-3.0,-7.0,145.0,-283.0,-194.0,17.0,6.0,-16.0,23.0,-237.0,-138.0,8.0,21.0,-20.0,-8.0,-150.0,-91.0,2.0,13.0,-17.0,-23.0,-75.0,-30.0LEFT,-43.0,-11.0,28.0,71.0,-994.0,-278.0,-36.0,26.0,-80.0,307.0,-1181.0,-370.0,8.0,87.0,-162.0,-288.0,-295.0,-158.0,49.0,74.0,-130.0,-106.0,822.0,48.0,63.0,52.0,-39.0,-230.0,1402.0,446.0,21.0,5.0,35.0,182.0,1128.0,523.0,-8.0,-48.0,65.0,52.0,729.0,461.0,-23.0,-49.0,65.0,7.0,329.0,161.0,-13.0,-39.0,60.0,-79.0,3.0,48.0,-7.0,-26.0,52.0,-130.0,-236.0,0.0,0.0,-11.0,26.0,-27.0,-343.0,-72.0,1.0,-7.0,9.0,91.0,-312.0,-124.0,8.0,4.0,-6.0,59.0,-255.0,-165.0,9.0,4.0,-11.0,27.0,-187.0,-120.0,5.0,10.0,-16.0,-57.0,-110.0,-87.0,2.0,7.0,-11.0,9.0,-46.0,-59.0LEFT,-45.0,-7.0,24.0,-29.0,-944.0,-235.0,-30.0,26.0,-70.0,55.0,-949.0,-232.0,26.0,67.0,-152.0,-533.0,-142.0,-115.0,56.0,59.0,-125.0,-116.0,773.0,37.0,52.0,41.0,-48.0,22.0,1296.0,336.0,3.0,-2.0,29.0,267.0,1072.0,397.0,-20.0,-35.0,63.0,356.0,847.0,428.0,-20.0,-38.0,68.0,-18.0,404.0,145.0,-8.0,-39.0,77.0,-123.0,-22.0,15.0,-5.0,-22.0,59.0,-313.0,-359.0,-51.0,-1.0,-15.0,30.0,-90.0,-475.0,-51.0,0.0,0.0,-5.0,49.0,-354.0,-76.0,12.0,1.0,-16.0,111.0,-232.0,-155.0,11.0,7.0,-16.0,-41.0,-150.0,-116.0,6.0,6.0,-12.0,-30.0,-119.0,-84.0,1.0,8.0,-13.0,4.0,-55.0,-25.0LEFT,-48.0,-3.0,38.0,-100.0,-952.0,-294.0,-49.0,37.0,-59.0,153.0,-1125.0,-358.0,11.0,94.0,-157.0,-354.0,-320.0,-84.0,57.0,53.0,-137.0,-123.0,703.0,139.0,66.0,27.0,-70.0,-31.0,1307.0,410.0,23.0,-22.0,15.0,129.0,1158.0,358.0,-11.0,-38.0,54.0,429.0,905.0,305.0,-21.0,-33.0,76.0,147.0,481.0,114.0,-21.0,-11.0,69.0,-55.0,109.0,78.0,-10.0,-14.0,58.0,-220.0,-205.0,57.0,-1.0,-11.0,39.0,-131.0,-289.0,25.0,7.0,-20.0,27.0,16.0,-329.0,-69.0,9.0,-4.0,8.0,-1.0,-293.0,-134.0,10.0,-5.0,-3.0,-90.0,-307.0,-147.0,7.0,5.0,-18.0,-14.0,-213.0,-123.0,5.0,8.0,-21.0,-100.0,-175.0,-67.0LEFT,-41.0,-10.0,54.0,-10.0,-869.0,-201.0,-46.0,14.0,-32.0,-156.0,-1148.0,-337.0,-16.0,64.0,-123.0,-153.0,-678.0,-252.0,32.0,53.0,-149.0,-324.0,273.0,4.0,60.0,55.0,-109.0,235.0,1132.0,230.0,50.0,22.0,-29.0,-6.0,1373.0,515.0,9.0,-27.0,48.0,547.0,1173.0,404.0,-25.0,-44.0,84.0,31.0,626.0,270.0,-27.0,-44.0,85.0,-148.0,219.0,76.0,-19.0,-19.0,55.0,-323.0,-117.0,-22.0,5.0,-23.0,48.0,18.0,-186.0,-42.0,12.0,-2.0,21.0,65.0,-321.0,-122.0,15.0,-7.0,16.0,88.0,-294.0,-145.0,7.0,13.0,-6.0,-167.0,-368.0,-108.0,5.0,-2.0,-15.0,-108.0,-285.0,-60.0,6.0,8.0,-23.0,38.0,-159.0,-60.0LEFT,-52.0,-8.0,29.0,1.0,-965.0,-232.0,-47.0,32.0,-70.0,-53.0,-1069.0,-307.0,9.0,60.0,-151.0,-427.0,-273.0,-134.0,60.0,73.0,-145.0,-104.0,796.0,84.0,73.0,39.0,-61.0,53.0,1395.0,435.0,22.0,-8.0,21.0,243.0,1162.0,426.0,-17.0,-52.0,64.0,239.0,830.0,323.0,-26.0,-38.0,63.0,7.0,463.0,106.0,-12.0,-25.0,61.0,-138.0,160.0,47.0,-6.0,-18.0,56.0,-136.0,-147.0,11.0,-2.0,-9.0,45.0,-73.0,-296.0,-71.0,3.0,-7.0,30.0,40.0,-375.0,-101.0,11.0,1.0,2.0,52.0,-378.0,-110.0,16.0,6.0,-25.0,-42.0,-362.0,-84.0,15.0,2.0,-23.0,87.0,-196.0,-84.0,2.0,15.0,-21.0,-58.0,-127.0,-51.0LEFT,-33.0,-24.0,70.0,291.0,-619.0,-161.0,-52.0,-14.0,27.0,-19.0,-1026.0,-220.0,-50.0,38.0,-96.0,253.0,-1010.0,-152.0,9.0,59.0,-161.0,-403.0,-64.0,-106.0,56.0,82.0,-151.0,-121.0,935.0,152.0,72.0,34.0,-38.0,-127.0,1513.0,394.0,18.0,-16.0,34.0,127.0,1240.0,462.0,-20.0,-65.0,86.0,396.0,781.0,261.0,-24.0,-45.0,78.0,4.0,276.0,37.0,-14.0,-26.0,69.0,-94.0,-66.0,-26.0,-2.0,-5.0,44.0,-115.0,-216.0,-87.0,7.0,-1.0,31.0,-85.0,-299.0,-68.0,9.0,0.0,13.0,46.0,-310.0,-115.0,14.0,1.0,1.0,-206.0,-348.0,-72.0,12.0,-1.0,-12.0,60.0,-273.0,-74.0,10.0,7.0,-20.0,21.0,-195.0,-34.0LEFT,-46.0,-5.0,51.0,125.0,-863.0,-137.0,-53.0,15.0,-26.0,87.0,-1082.0,-200.0,-15.0,55.0,-130.0,-237.0,-605.0,15.0,44.0,34.0,-155.0,-338.0,585.0,8.0,70.0,39.0,-86.0,-244.0,1278.0,125.0,52.0,-4.0,12.0,-346.0,1215.0,134.0,-1.0,-14.0,57.0,199.0,709.0,234.0,-24.0,-29.0,53.0,96.0,406.0,194.0,-22.0,-10.0,40.0,194.0,293.0,90.0,-9.0,-18.0,47.0,-19.0,98.0,21.0,-1.0,-7.0,40.0,47.0,-133.0,-3.0,4.0,-11.0,29.0,-94.0,-308.0,-29.0,6.0,1.0,7.0,-31.0,-364.0,-44.0,8.0,-5.0,-4.0,-7.0,-277.0,-62.0,9.0,4.0,-9.0,34.0,-191.0,-76.0,7.0,0.0,-8.0,17.0,-112.0,-69.0LEFT,-39.0,-19.0,31.0,134.0,-1005.0,-392.0,-37.0,34.0,-73.0,314.0,-982.0,-325.0,9.0,68.0,-152.0,-163.0,-95.0,41.0,46.0,81.0,-148.0,-295.0,883.0,338.0,58.0,37.0,-52.0,-73.0,1376.0,447.0,20.0,-25.0,36.0,209.0,1208.0,407.0,-19.0,-49.0,84.0,263.0,761.0,214.0,-29.0,-41.0,77.0,-47.0,231.0,49.0,-14.0,-16.0,58.0,-272.0,-125.0,-14.0,9.0,-19.0,44.0,38.0,-299.0,26.0,17.0,-23.0,33.0,170.0,-323.0,-2.0,8.0,-7.0,9.0,165.0,-330.0,-129.0,3.0,11.0,-9.0,-169.0,-323.0,-168.0,3.0,16.0,-20.0,-124.0,-219.0,-132.0,5.0,7.0,-14.0,-41.0,-62.0,-48.0,3.0,0.0,-7.0,4.0,-37.0,-27.0LEFT,-39.0,-14.0,63.0,281.0,-645.0,-94.0,-47.0,0.0,16.0,-73.0,-1019.0,-134.0,-31.0,42.0,-96.0,-83.0,-852.0,-82.0,20.0,42.0,-144.0,-473.0,-19.0,-14.0,53.0,32.0,-123.0,-103.0,785.0,115.0,55.0,10.0,-49.0,-94.0,1132.0,173.0,17.0,-17.0,16.0,218.0,1086.0,187.0,-16.0,-16.0,49.0,167.0,869.0,117.0,-28.0,-14.0,65.0,70.0,537.0,71.0,-19.0,-12.0,67.0,-81.0,154.0,62.0,-5.0,-13.0,64.0,-110.0,-212.0,34.0,2.0,-16.0,46.0,9.0,-416.0,-7.0,8.0,-4.0,17.0,28.0,-439.0,-76.0,15.0,1.0,-14.0,133.0,-377.0,-97.0,19.0,8.0,-26.0,-154.0,-247.0,-74.0,13.0,0.0,-21.0,70.0,-108.0,-67.0LEFT,-44.0,-5.0,50.0,-64.0,-931.0,-113.0,-50.0,16.0,-55.0,-132.0,-1082.0,-180.0,1.0,48.0,-142.0,-416.0,-387.0,-131.0,48.0,60.0,-150.0,-129.0,579.0,-55.0,66.0,51.0,-76.0,167.0,1212.0,253.0,29.0,11.0,-2.0,85.0,1112.0,423.0,-7.0,-44.0,42.0,231.0,902.0,357.0,-22.0,-47.0,58.0,163.0,594.0,170.0,-20.0,-33.0,63.0,68.0,292.0,-22.0,-10.0,-15.0,62.0,-159.0,-46.0,-20.0,-4.0,-5.0,50.0,-241.0,-292.0,-4.0,0.0,-7.0,32.0,51.0,-386.0,-34.0,6.0,3.0,12.0,187.0,-395.0,-110.0,14.0,2.0,-6.0,28.0,-371.0,-139.0,15.0,6.0,-16.0,-39.0,-211.0,-82.0,8.0,5.0,-20.0,-140.0,-96.0,-33.0LEFT,-36.0,-19.0,66.0,223.0,-646.0,-134.0,-47.0,-16.0,31.0,-105.0,-941.0,-266.0,-41.0,38.0,-76.0,32.0,-938.0,-317.0,11.0,64.0,-153.0,-540.0,-66.0,-116.0,55.0,68.0,-145.0,-54.0,784.0,172.0,62.0,38.0,-70.0,114.0,1323.0,458.0,25.0,-22.0,20.0,420.0,1273.0,405.0,-19.0,-42.0,78.0,259.0,858.0,242.0,-32.0,-41.0,89.0,-71.0,364.0,50.0,-19.0,-25.0,81.0,-206.0,-43.0,26.0,1.0,-23.0,58.0,-46.0,-318.0,13.0,8.0,-10.0,27.0,-23.0,-411.0,-112.0,20.0,-7.0,9.0,112.0,-371.0,-140.0,13.0,12.0,-12.0,-57.0,-363.0,-145.0,15.0,8.0,-17.0,7.0,-278.0,-31.0,3.0,9.0,-24.0,-67.0,-196.0,-27.0LEFT,-46.0,-2.0,23.0,-183.0,-972.0,-304.0,-39.0,29.0,-60.0,138.0,-958.0,-375.0,-12.0,68.0,-141.0,-270.0,-292.0,-157.0,42.0,74.0,-146.0,-76.0,642.0,196.0,63.0,49.0,-90.0,184.0,1297.0,543.0,44.0,-22.0,-3.0,69.0,1383.0,540.0,-6.0,-59.0,65.0,397.0,1040.0,300.0,-32.0,-44.0,81.0,142.0,531.0,94.0,-27.0,-23.0,87.0,-55.0,90.0,13.0,-9.0,-9.0,75.0,-236.0,-257.0,33.0,10.0,-21.0,52.0,-349.0,-442.0,-78.0,15.0,-13.0,18.0,130.0,-413.0,-200.0,19.0,-2.0,-3.0,80.0,-345.0,-201.0,9.0,13.0,-20.0,178.0,-340.0,-112.0,11.0,11.0,-22.0,-183.0,-223.0,24.0,4.0,6.0,-20.0,2.0,-97.0,-17.0LEFT,-34.0,-27.0,61.0,287.0,-615.0,-215.0,-54.0,-10.0,4.0,184.0,-1007.0,-224.0,-48.0,39.0,-92.0,266.0,-909.0,-234.0,20.0,72.0,-160.0,-595.0,24.0,64.0,67.0,56.0,-117.0,-156.0,921.0,198.0,68.0,28.0,-48.0,-310.0,1231.0,396.0,7.0,-26.0,25.0,514.0,1087.0,283.0,-22.0,-34.0,56.0,391.0,887.0,254.0,-23.0,-24.0,66.0,207.0,598.0,114.0,-12.0,-15.0,73.0,-217.0,160.0,62.0,-8.0,-12.0,58.0,-226.0,-203.0,-3.0,-1.0,-15.0,45.0,-239.0,-347.0,-24.0,4.0,-12.0,24.0,70.0,-387.0,-115.0,12.0,-9.0,7.0,-5.0,-380.0,-126.0,15.0,1.0,-7.0,149.0,-328.0,-129.0,13.0,9.0,-18.0,-102.0,-259.0,-64.0LEFT,-42.0,-6.0,59.0,54.0,-688.0,-150.0,-44.0,7.0,6.0,-79.0,-1003.0,-169.0,-21.0,29.0,-87.0,-153.0,-752.0,-132.0,21.0,34.0,-135.0,-323.0,-94.0,-2.0,41.0,52.0,-126.0,-73.0,712.0,115.0,53.0,27.0,-61.0,-131.0,1133.0,278.0,18.0,-11.0,10.0,315.0,1238.0,279.0,-7.0,-46.0,61.0,319.0,912.0,192.0,-30.0,-30.0,65.0,74.0,449.0,23.0,-11.0,-15.0,66.0,-46.0,138.0,4.0,-2.0,3.0,53.0,-238.0,-183.0,81.0,4.0,-8.0,37.0,-28.0,-290.0,67.0,-3.0,-7.0,19.0,15.0,-378.0,-54.0,4.0,-20.0,7.0,124.0,-337.0,-139.0,10.0,-3.0,-4.0,47.0,-328.0,-175.0,11.0,5.0,-18.0,13.0,-234.0,-95.0LEFT,-47.0,-1.0,50.0,6.0,-950.0,-196.0,-49.0,7.0,-28.0,291.0,-1090.0,-244.0,-13.0,82.0,-144.0,-400.0,-671.0,-106.0,44.0,43.0,-145.0,-154.0,427.0,33.0,57.0,51.0,-94.0,-106.0,1079.0,288.0,36.0,6.0,-23.0,175.0,1320.0,405.0,-4.0,-26.0,31.0,407.0,1138.0,336.0,-18.0,-38.0,66.0,341.0,808.0,191.0,-19.0,-36.0,84.0,53.0,351.0,57.0,-11.0,-19.0,81.0,-315.0,-75.0,15.0,-2.0,-27.0,70.0,-121.0,-334.0,-35.0,3.0,-2.0,32.0,-192.0,-463.0,-120.0,14.0,-2.0,5.0,40.0,-464.0,-161.0,14.0,8.0,-16.0,0.0,-384.0,-119.0,14.0,-2.0,-18.0,81.0,-250.0,-36.0,5.0,6.0,-22.0,95.0,-92.0,-6.0LEFT,-33.0,0.0,66.0,172.0,-817.0,-84.0,-41.0,14.0,-7.0,-215.0,-1065.0,-95.0,-21.0,41.0,-96.0,-374.0,-732.0,-96.0,1.0,34.0,-141.0,-335.0,47.0,-101.0,44.0,38.0,-119.0,41.0,711.0,99.0,54.0,-6.0,-68.0,387.0,1220.0,234.0,30.0,-21.0,-8.0,160.0,1352.0,294.0,-12.0,-26.0,55.0,474.0,1144.0,116.0,-28.0,-7.0,96.0,-95.0,533.0,99.0,-24.0,-2.0,89.0,-10.0,-2.0,44.0,-9.0,-8.0,61.0,-321.0,-357.0,53.0,8.0,-14.0,33.0,-49.0,-374.0,-7.0,19.0,-16.0,12.0,63.0,-347.0,-69.0,22.0,-9.0,-1.0,-47.0,-311.0,-126.0,11.0,6.0,-12.0,-14.0,-297.0,-86.0,5.0,6.0,-15.0,-35.0,-203.0,-81.0LEFT,-47.0,-9.0,49.0,32.0,-676.0,-128.0,-49.0,-9.0,0.0,165.0,-936.0,-192.0,-10.0,44.0,-116.0,-286.0,-754.0,-172.0,47.0,38.0,-132.0,-225.0,236.0,-82.0,55.0,73.0,-127.0,-117.0,781.0,169.0,39.0,8.0,-29.0,254.0,1315.0,325.0,-1.0,-11.0,16.0,229.0,930.0,356.0,-17.0,-51.0,70.0,257.0,830.0,212.0,-25.0,-22.0,69.0,-100.0,372.0,49.0,-16.0,-15.0,63.0,-178.0,25.0,20.0,-8.0,-12.0,49.0,-117.0,-189.0,-1.0,3.0,-8.0,38.0,-51.0,-377.0,-59.0,9.0,-12.0,24.0,132.0,-372.0,-115.0,13.0,1.0,-7.0,-157.0,-461.0,-143.0,15.0,1.0,-22.0,172.0,-238.0,-73.0,12.0,14.0,-23.0,-18.0,-150.0,-20.0LEFT,-54.0,2.0,37.0,-153.0,-1009.0,-214.0,-51.0,49.0,-60.0,-20.0,-1105.0,-292.0,2.0,72.0,-155.0,-364.0,-351.0,-29.0,64.0,45.0,-160.0,8.0,661.0,127.0,80.0,27.0,-100.0,-156.0,1240.0,397.0,39.0,-21.0,-16.0,70.0,1354.0,292.0,-24.0,-24.0,57.0,188.0,1080.0,278.0,-47.0,-37.0,92.0,166.0,662.0,91.0,-28.0,-25.0,107.0,-52.0,213.0,133.0,-10.0,-26.0,81.0,-175.0,-309.0,26.0,6.0,-17.0,48.0,-7.0,-463.0,-40.0,16.0,-13.0,14.0,56.0,-540.0,-229.0,26.0,3.0,-12.0,79.0,-433.0,-200.0,20.0,11.0,-32.0,3.0,-352.0,-126.0,10.0,19.0,-38.0,18.0,-164.0,-43.0,4.0,7.0,-21.0,68.0,11.0,-28.0QW,-9.0,79.0,-34.0,2331.0,365.0,-165.0,-22.0,157.0,-28.0,-52.0,26.0,-153.0,-17.0,181.0,-19.0,-2299.0,-156.0,-45.0,-10.0,15.0,11.0,-2332.0,-358.0,230.0,2.0,7.0,-17.0,-2450.0,-151.0,299.0,1.0,-123.0,1.0,-2390.0,-248.0,-117.0,22.0,-128.0,13.0,-1213.0,-96.0,-260.0,9.0,-183.0,34.0,1631.0,26.0,-266.0,17.0,-46.0,12.0,2453.0,186.0,59.0,-4.0,12.0,-6.0,1514.0,54.0,153.0,7.0,17.0,-7.0,622.0,60.0,73.0,-2.0,21.0,-4.0,-67.0,7.0,17.0,-1.0,12.0,2.0,-113.0,51.0,24.0,1.0,2.0,7.0,-95.0,19.0,7.0,0.0,4.0,5.0,-30.0,7.0,14.0,-1.0,-7.0,3.0,63.0,-12.0,1.0QW,-9.0,-20.0,-76.0,3994.0,255.0,1.0,-32.0,210.0,-46.0,607.0,22.0,-23.0,-18.0,267.0,-28.0,-2095.0,-193.0,230.0,-7.0,129.0,64.0,-4329.0,-316.0,125.0,19.0,-98.0,17.0,-2340.0,-160.0,10.0,5.0,-137.0,-11.0,-2265.0,-196.0,-343.0,15.0,-144.0,-2.0,-1330.0,-54.0,-249.0,9.0,-171.0,20.0,1849.0,53.0,-87.0,14.0,-59.0,8.0,2207.0,170.0,149.0,6.0,13.0,-3.0,1964.0,120.0,126.0,3.0,31.0,-8.0,434.0,50.0,59.0,-3.0,5.0,1.0,517.0,58.0,-24.0,-4.0,16.0,7.0,-150.0,-4.0,-34.0,1.0,10.0,10.0,-102.0,21.0,3.0,1.0,10.0,7.0,-321.0,-35.0,39.0,0.0,-3.0,4.0,-111.0,-10.0,44.0QW,-2.0,92.0,-98.0,3554.0,537.0,-127.0,-23.0,197.0,-32.0,-335.0,51.0,-101.0,-21.0,232.0,-27.0,-3307.0,-346.0,39.0,-19.0,68.0,69.0,-5575.0,-690.0,207.0,3.0,-154.0,5.0,-2399.0,-211.0,-77.0,14.0,-183.0,0.0,-892.0,-52.0,-325.0,8.0,-152.0,29.0,1519.0,75.0,-184.0,13.0,-69.0,25.0,2570.0,116.0,105.0,-2.0,10.0,9.0,1615.0,84.0,175.0,8.0,-9.0,-4.0,626.0,55.0,83.0,2.0,34.0,-6.0,-54.0,24.0,39.0,3.0,12.0,-1.0,-49.0,12.0,12.0,2.0,3.0,3.0,-153.0,19.0,23.0,0.0,-4.0,2.0,-23.0,5.0,2.0,0.0,-3.0,3.0,-23.0,7.0,14.0,-2.0,3.0,0.0,-15.0,-6.0,4.0QW,-4.0,81.0,-157.0,4386.0,355.0,-78.0,-17.0,144.0,0.0,622.0,-18.0,-236.0,-22.0,267.0,-26.0,-3056.0,-249.0,136.0,-5.0,65.0,144.0,-5121.0,-389.0,208.0,3.0,-54.0,-28.0,-2527.0,-2.0,115.0,9.0,-151.0,-16.0,-2024.0,-358.0,-363.0,3.0,-184.0,15.0,1150.0,2.0,-252.0,17.0,-114.0,34.0,2744.0,11.0,71.0,10.0,-1.0,26.0,2811.0,406.0,274.0,9.0,37.0,-3.0,-216.0,20.0,115.0,-2.0,17.0,-6.0,-23.0,20.0,4.0,1.0,8.0,3.0,-213.0,23.0,-3.0,-2.0,2.0,5.0,-97.0,13.0,5.0,-2.0,-6.0,7.0,-27.0,10.0,3.0,-2.0,2.0,3.0,-56.0,-24.0,-12.0,-1.0,-1.0,-1.0,-2.0,-6.0,-10.0QW,-8.0,-32.0,-145.0,4588.0,385.0,14.0,-27.0,201.0,-12.0,710.0,122.0,-132.0,-26.0,233.0,-24.0,-1376.0,-139.0,6.0,-1.0,146.0,140.0,-4732.0,-425.0,32.0,10.0,-75.0,7.0,-2077.0,-183.0,211.0,-1.0,-116.0,-23.0,-2153.0,-239.0,-279.0,11.0,-182.0,-5.0,-1472.0,-202.0,-106.0,22.0,-141.0,5.0,1933.0,7.0,-147.0,23.0,-68.0,23.0,2781.0,243.0,218.0,2.0,63.0,0.0,1853.0,228.0,49.0,-4.0,2.0,-1.0,-19.0,84.0,49.0,-2.0,9.0,3.0,-86.0,37.0,7.0,0.0,1.0,9.0,-177.0,29.0,28.0,1.0,0.0,7.0,-71.0,4.0,7.0,-1.0,3.0,5.0,-73.0,3.0,1.0,-2.0,-2.0,1.0,43.0,-17.0,-17.0QW,-20.0,171.0,-55.0,1988.0,350.0,-161.0,-16.0,128.0,-15.0,757.0,191.0,-47.0,-24.0,233.0,-14.0,-3359.0,-342.0,-25.0,5.0,-45.0,49.0,-2785.0,-395.0,274.0,-1.0,-31.0,8.0,-2333.0,-332.0,60.0,12.0,-94.0,10.0,-1484.0,-152.0,-176.0,14.0,-124.0,10.0,-107.0,-148.0,-151.0,12.0,-95.0,5.0,1432.0,71.0,-39.0,14.0,-29.0,-1.0,1559.0,148.0,180.0,0.0,4.0,-1.0,886.0,169.0,44.0,1.0,10.0,2.0,84.0,53.0,21.0,-4.0,0.0,1.0,142.0,57.0,0.0,-2.0,3.0,1.0,53.0,37.0,-6.0,2.0,1.0,1.0,35.0,26.0,2.0,1.0,0.0,3.0,-70.0,-27.0,-2.0,0.0,4.0,-1.0,-34.0,-16.0,9.0QW,-20.0,86.0,-86.0,2923.0,550.0,-32.0,-17.0,135.0,-18.0,-380.0,-77.0,-73.0,-17.0,176.0,-18.0,-2536.0,-264.0,-40.0,11.0,46.0,73.0,-4041.0,-645.0,144.0,3.0,-62.0,-15.0,-2348.0,-63.0,-84.0,12.0,-157.0,-7.0,-1575.0,-211.0,-180.0,6.0,-165.0,13.0,1019.0,-23.0,-189.0,9.0,-79.0,22.0,2538.0,62.0,118.0,8.0,20.0,12.0,1930.0,271.0,174.0,6.0,38.0,-12.0,231.0,115.0,73.0,6.0,-6.0,5.0,112.0,48.0,29.0,0.0,14.0,6.0,55.0,47.0,-9.0,-2.0,-1.0,11.0,-156.0,8.0,19.0,-2.0,13.0,1.0,-109.0,-15.0,1.0,-2.0,-1.0,-2.0,-95.0,-7.0,5.0,1.0,-3.0,0.0,-7.0,-3.0,-23.0QW,-18.0,119.0,-108.0,3118.0,583.0,-16.0,-20.0,112.0,-14.0,258.0,63.0,-6.0,-23.0,237.0,-32.0,-2586.0,-261.0,51.0,6.0,-7.0,98.0,-3598.0,-574.0,143.0,4.0,-3.0,-13.0,-2425.0,-196.0,-44.0,12.0,-134.0,-15.0,-2171.0,-227.0,-231.0,17.0,-187.0,-9.0,-712.0,-140.0,-223.0,15.0,-140.0,3.0,2655.0,125.0,-15.0,17.0,-46.0,25.0,2881.0,367.0,168.0,-3.0,73.0,2.0,1428.0,158.0,95.0,0.0,12.0,15.0,115.0,64.0,65.0,-6.0,28.0,9.0,-179.0,-14.0,33.0,-4.0,2.0,10.0,120.0,19.0,37.0,-2.0,24.0,7.0,-503.0,-46.0,1.0,0.0,1.0,4.0,-10.0,4.0,15.0,0.0,5.0,5.0,-148.0,-25.0,-13.0QW,-29.0,118.0,-90.0,2901.0,564.0,-387.0,0.0,167.0,-20.0,-446.0,-67.0,-108.0,-25.0,210.0,-7.0,-2872.0,-369.0,119.0,17.0,-11.0,79.0,-3810.0,-661.0,537.0,-10.0,-97.0,-1.0,-1681.0,-69.0,58.0,19.0,-115.0,2.0,-1651.0,-131.0,-228.0,17.0,-167.0,5.0,609.0,4.0,-190.0,17.0,-79.0,4.0,2159.0,112.0,49.0,11.0,-24.0,16.0,2224.0,270.0,165.0,-4.0,54.0,-7.0,556.0,112.0,57.0,-5.0,4.0,6.0,-9.0,21.0,50.0,-5.0,20.0,1.0,-22.0,7.0,-12.0,-2.0,0.0,7.0,-87.0,-14.0,0.0,-1.0,5.0,3.0,-90.0,-26.0,-17.0,3.0,1.0,1.0,-34.0,6.0,29.0,-1.0,-1.0,0.0,-52.0,-4.0,-15.0QW,3.0,-6.0,-72.0,3541.0,325.0,-49.0,-25.0,144.0,-21.0,904.0,134.0,-158.0,-25.0,193.0,-33.0,-1156.0,-78.0,21.0,-14.0,141.0,60.0,-3708.0,-339.0,137.0,11.0,-9.0,7.0,-2188.0,-189.0,299.0,3.0,-86.0,-1.0,-2424.0,-262.0,-116.0,7.0,-150.0,12.0,-983.0,-127.0,-59.0,8.0,-159.0,14.0,766.0,-118.0,-217.0,13.0,-48.0,4.0,2285.0,111.0,46.0,5.0,-3.0,-4.0,1173.0,106.0,-47.0,5.0,23.0,-9.0,581.0,136.0,58.0,6.0,-21.0,9.0,261.0,127.0,49.0,-3.0,19.0,-2.0,205.0,52.0,21.0,0.0,-3.0,10.0,159.0,45.0,3.0,-2.0,22.0,3.0,-100.0,-10.0,15.0,1.0,-4.0,7.0,-93.0,-9.0,11.0QW,12.0,44.0,-97.0,3212.0,419.0,-163.0,-12.0,134.0,-20.0,687.0,123.0,-143.0,-19.0,199.0,-21.0,-1520.0,-124.0,-19.0,-19.0,80.0,89.0,-3589.0,-434.0,278.0,2.0,-7.0,10.0,-2268.0,-134.0,265.0,-5.0,-77.0,-32.0,-2802.0,-303.0,-263.0,8.0,-210.0,16.0,-242.0,-60.0,-136.0,10.0,-133.0,5.0,2160.0,-19.0,-124.0,26.0,-53.0,41.0,2572.0,261.0,254.0,1.0,85.0,-12.0,807.0,81.0,12.0,-2.0,8.0,0.0,-612.0,7.0,42.0,-1.0,4.0,-3.0,383.0,53.0,-20.0,1.0,2.0,2.0,-110.0,23.0,18.0,0.0,1.0,3.0,61.0,23.0,11.0,0.0,0.0,4.0,-4.0,3.0,25.0,-5.0,0.0,1.0,-31.0,-21.0,12.0QW,18.0,74.0,-99.0,3142.0,416.0,-196.0,-11.0,97.0,-4.0,670.0,60.0,-154.0,-17.0,172.0,-33.0,-1618.0,-123.0,-6.0,-23.0,47.0,89.0,-3485.0,-426.0,272.0,-1.0,8.0,-3.0,-1958.0,-91.0,245.0,4.0,-54.0,-11.0,-2018.0,-178.0,-142.0,15.0,-149.0,9.0,-983.0,-119.0,-31.0,20.0,-140.0,7.0,1275.0,-65.0,-33.0,18.0,-75.0,15.0,2307.0,196.0,175.0,-7.0,16.0,-4.0,1425.0,122.0,-23.0,-6.0,29.0,-6.0,199.0,104.0,-51.0,-3.0,1.0,6.0,102.0,43.0,-27.0,-3.0,12.0,4.0,-51.0,22.0,-28.0,-1.0,8.0,5.0,-76.0,-1.0,-9.0,-2.0,6.0,1.0,-109.0,-16.0,2.0,0.0,-1.0,0.0,-22.0,-6.0,6.0QW,-11.0,-53.0,-63.0,3498.0,187.0,62.0,-12.0,150.0,-33.0,1581.0,139.0,-268.0,-6.0,214.0,-29.0,-274.0,-5.0,-48.0,-1.0,147.0,52.0,-3408.0,-205.0,-86.0,2.0,-36.0,23.0,-1777.0,-154.0,347.0,-8.0,-46.0,6.0,-2163.0,-107.0,95.0,9.0,-69.0,-4.0,-2249.0,-248.0,-84.0,10.0,-154.0,10.0,-231.0,-110.0,-35.0,12.0,-116.0,5.0,1991.0,-7.0,-15.0,7.0,-31.0,10.0,2238.0,228.0,161.0,1.0,24.0,-2.0,893.0,101.0,-26.0,0.0,6.0,0.0,-69.0,73.0,2.0,-2.0,0.0,0.0,-46.0,17.0,-46.0,0.0,11.0,0.0,43.0,48.0,-12.0,1.0,3.0,2.0,-52.0,2.0,-2.0,0.0,1.0,3.0,48.0,21.0,7.0QW,1.0,57.0,-125.0,3730.0,340.0,0.0,0.0,102.0,-1.0,542.0,50.0,35.0,-16.0,210.0,-32.0,-2000.0,-298.0,62.0,-3.0,47.0,119.0,-3932.0,-361.0,45.0,-9.0,13.0,-15.0,-2033.0,-13.0,-19.0,4.0,-108.0,-14.0,-1923.0,-1.0,-235.0,6.0,-145.0,7.0,-748.0,-75.0,-43.0,9.0,-135.0,10.0,1471.0,-97.0,20.0,12.0,-55.0,12.0,2262.0,125.0,262.0,1.0,20.0,-14.0,1356.0,100.0,20.0,-2.0,14.0,-7.0,387.0,64.0,-4.0,1.0,7.0,5.0,236.0,62.0,-20.0,-2.0,13.0,8.0,-156.0,21.0,-16.0,-2.0,4.0,7.0,-31.0,16.0,-31.0,-1.0,12.0,3.0,-63.0,-8.0,-15.0,-1.0,3.0,5.0,-58.0,2.0,-5.0QW,1.0,85.0,-66.0,2453.0,401.0,-105.0,-13.0,121.0,-12.0,514.0,100.0,-70.0,-16.0,176.0,-20.0,-2315.0,-111.0,-60.0,-3.0,52.0,58.0,-3192.0,-466.0,183.0,2.0,-26.0,0.0,-2277.0,-222.0,30.0,10.0,-72.0,5.0,-1571.0,-63.0,-177.0,6.0,-131.0,21.0,304.0,9.0,-91.0,9.0,-71.0,12.0,1257.0,42.0,51.0,9.0,-32.0,11.0,1433.0,98.0,230.0,-3.0,-3.0,-10.0,292.0,42.0,45.0,0.0,-15.0,-6.0,277.0,12.0,14.0,-1.0,-1.0,-3.0,317.0,41.0,-15.0,-1.0,3.0,0.0,126.0,17.0,-21.0,0.0,1.0,3.0,69.0,23.0,-21.0,0.0,10.0,1.0,-21.0,-3.0,-8.0,-1.0,-2.0,0.0,-42.0,-20.0,-8.0QW,1.0,27.0,-6.0,1303.0,273.0,-162.0,-22.0,203.0,-31.0,-1067.0,55.0,-98.0,-31.0,51.0,70.0,-2995.0,-356.0,132.0,-16.0,77.0,1.0,-1806.0,-333.0,238.0,11.0,-57.0,12.0,-1750.0,-198.0,51.0,-6.0,-124.0,-5.0,-1308.0,-205.0,-231.0,7.0,-102.0,9.0,-304.0,-101.0,-106.0,9.0,-115.0,7.0,1414.0,9.0,110.0,13.0,-15.0,2.0,1743.0,211.0,239.0,6.0,0.0,-7.0,924.0,136.0,59.0,0.0,12.0,-3.0,125.0,73.0,-19.0,0.0,1.0,1.0,55.0,44.0,-30.0,1.0,-1.0,4.0,-53.0,25.0,-22.0,1.0,-1.0,2.0,25.0,6.0,-13.0,-1.0,4.0,1.0,20.0,2.0,-15.0,-1.0,3.0,-1.0,-33.0,-5.0,7.0QW,-15.0,113.0,-47.0,2112.0,356.0,-300.0,-11.0,121.0,-22.0,752.0,141.0,-105.0,-30.0,157.0,-22.0,-2264.0,-125.0,55.0,13.0,5.0,43.0,-2679.0,-355.0,420.0,-6.0,-19.0,11.0,-2238.0,-178.0,157.0,10.0,-47.0,3.0,-1759.0,-254.0,-117.0,5.0,-131.0,6.0,-698.0,-169.0,-165.0,20.0,-105.0,7.0,1022.0,-108.0,-54.0,18.0,-53.0,-1.0,1819.0,195.0,168.0,-2.0,7.0,-5.0,1257.0,154.0,51.0,-3.0,0.0,-2.0,413.0,132.0,-19.0,0.0,8.0,6.0,130.0,54.0,7.0,-1.0,5.0,3.0,98.0,19.0,10.0,1.0,11.0,3.0,-70.0,1.0,36.0,-2.0,1.0,0.0,-154.0,-16.0,16.0,0.0,-3.0,-1.0,-146.0,1.0,4.0QW,-11.0,114.0,-29.0,1656.0,301.0,-39.0,-7.0,105.0,-26.0,822.0,215.0,71.0,-12.0,146.0,-11.0,-2423.0,-212.0,-54.0,5.0,-7.0,22.0,-2104.0,-328.0,71.0,-7.0,1.0,18.0,-1879.0,-313.0,-11.0,6.0,-14.0,-6.0,-1435.0,-49.0,-142.0,7.0,-96.0,5.0,-1146.0,-189.0,-134.0,19.0,-120.0,9.0,191.0,-58.0,-58.0,9.0,-81.0,3.0,1831.0,106.0,171.0,0.0,-4.0,-1.0,1373.0,198.0,165.0,-6.0,8.0,-7.0,697.0,115.0,19.0,-2.0,8.0,0.0,-200.0,26.0,12.0,-2.0,-10.0,1.0,156.0,8.0,-47.0,0.0,6.0,2.0,-13.0,17.0,-16.0,0.0,1.0,1.0,-21.0,-18.0,-16.0,0.0,4.0,0.0,-14.0,-4.0,-13.0QW,-19.0,127.0,-42.0,1362.0,151.0,134.0,-22.0,126.0,-24.0,199.0,13.0,-49.0,-5.0,171.0,1.0,-2843.0,-239.0,-99.0,6.0,-13.0,35.0,-1595.0,-161.0,-99.0,6.0,-9.0,9.0,-1411.0,-147.0,111.0,-8.0,-35.0,-6.0,-1698.0,-102.0,-146.0,7.0,-115.0,6.0,-1244.0,-190.0,-150.0,13.0,-124.0,10.0,608.0,-71.0,-104.0,13.0,-68.0,10.0,1854.0,92.0,163.0,5.0,-3.0,0.0,1365.0,174.0,143.0,-1.0,9.0,-7.0,346.0,117.0,27.0,-1.0,-4.0,1.0,54.0,24.0,-16.0,0.0,5.0,-1.0,57.0,19.0,-17.0,0.0,3.0,0.0,5.0,3.0,5.0,0.0,2.0,1.0,-46.0,-2.0,11.0,0.0,-2.0,0.0,-10.0,0.0,2.0QW,-3.0,88.0,-16.0,1026.0,267.0,-114.0,-23.0,170.0,-31.0,-1485.0,-178.0,-63.0,-22.0,101.0,83.0,-3471.0,-559.0,130.0,-15.0,45.0,4.0,-2066.0,-317.0,231.0,4.0,-63.0,-29.0,-2622.0,-88.0,-257.0,27.0,-170.0,4.0,-1659.0,-182.0,38.0,21.0,-160.0,1.0,917.0,-100.0,-125.0,20.0,-90.0,26.0,3144.0,167.0,308.0,-15.0,40.0,-3.0,2268.0,222.0,-109.0,-5.0,25.0,-3.0,436.0,165.0,5.0,-4.0,17.0,9.0,-101.0,27.0,-7.0,-3.0,15.0,10.0,-111.0,27.0,8.0,0.0,-1.0,14.0,-270.0,-7.0,0.0,-1.0,9.0,5.0,-200.0,-29.0,-7.0,1.0,-1.0,2.0,-115.0,-13.0,-1.0,0.0,3.0,0.0,-43.0,-15.0,6.0QW,-20.0,70.0,-44.0,3660.0,447.0,430.0,-24.0,108.0,114.0,-103.0,54.0,-91.0,-43.0,196.0,71.0,-4066.0,-444.0,60.0,-1.0,78.0,147.0,-4443.0,-525.0,-395.0,6.0,17.0,-24.0,-2893.0,-159.0,75.0,15.0,-82.0,-36.0,-2407.0,-65.0,-327.0,15.0,-195.0,-14.0,-629.0,-62.0,-133.0,18.0,-100.0,-45.0,329.0,-36.0,-168.0,14.0,-61.0,-34.0,2032.0,66.0,243.0,5.0,54.0,-66.0,610.0,57.0,14.0,-4.0,0.0,-35.0,1197.0,19.0,179.0,1.0,20.0,-27.0,442.0,51.0,34.0,-1.0,-1.0,-16.0,454.0,24.0,75.0,3.0,-2.0,-2.0,227.0,13.0,10.0,-6.0,9.0,-10.0,11.0,-5.0,-5.0,0.0,-6.0,1.0,81.0,21.0,10.0QW,44.0,253.0,-53.0,1052.0,127.0,-521.0,-5.0,69.0,92.0,-879.0,-31.0,-320.0,-14.0,206.0,107.0,-6895.0,-583.0,-110.0,-52.0,-177.0,149.0,-2419.0,-213.0,551.0,0.0,32.0,-41.0,-2644.0,-52.0,-41.0,2.0,-170.0,-57.0,-759.0,-59.0,-103.0,6.0,-69.0,-80.0,-11.0,-115.0,-171.0,3.0,-86.0,-45.0,1990.0,-75.0,205.0,3.0,41.0,-32.0,1692.0,108.0,-52.0,5.0,-12.0,-14.0,1194.0,158.0,98.0,1.0,15.0,-15.0,522.0,109.0,57.0,2.0,20.0,-9.0,119.0,45.0,26.0,3.0,9.0,-4.0,65.0,34.0,14.0,1.0,12.0,-5.0,-81.0,-8.0,-23.0,-2.0,-5.0,0.0,110.0,22.0,-1.0,-2.0,0.0,-1.0,-4.0,26.0,12.0QW,7.0,-94.0,-27.0,5733.0,490.0,322.0,-35.0,254.0,11.0,1359.0,525.0,-199.0,-36.0,255.0,64.0,-1676.0,-165.0,-51.0,-34.0,212.0,123.0,-7114.0,-636.0,-254.0,14.0,-180.0,73.0,-3344.0,-749.0,50.0,24.0,-152.0,-44.0,-2665.0,-168.0,-386.0,21.0,-152.0,-52.0,-348.0,-11.0,-354.0,15.0,-93.0,-49.0,680.0,135.0,-71.0,5.0,-51.0,-39.0,1655.0,119.0,212.0,9.0,29.0,-37.0,1640.0,172.0,227.0,6.0,29.0,-31.0,1123.0,82.0,186.0,1.0,24.0,-14.0,822.0,44.0,150.0,1.0,0.0,-4.0,101.0,-14.0,79.0,0.0,-5.0,-4.0,24.0,-15.0,21.0,-1.0,-1.0,-1.0,1.0,-10.0,-36.0,-2.0,1.0,-1.0,4.0,1.0,-15.0QW,9.0,-93.0,-60.0,6186.0,601.0,277.0,33.0,256.0,54.0,790.0,518.0,-151.0,-30.0,92.0,77.0,-894.0,76.0,-75.0,-48.0,235.0,163.0,-6663.0,-725.0,-259.0,-55.0,-132.0,46.0,-1279.0,-546.0,114.0,3.0,73.0,-13.0,-2196.0,-256.0,-98.0,22.0,-78.0,-10.0,-1350.0,-70.0,-254.0,15.0,-112.0,-13.0,-1197.0,-148.0,-196.0,11.0,-84.0,-19.0,229.0,1.0,9.0,11.0,-71.0,-21.0,806.0,123.0,112.0,5.0,-22.0,-32.0,652.0,65.0,140.0,8.0,-18.0,-44.0,507.0,38.0,16.0,4.0,4.0,-37.0,633.0,23.0,74.0,2.0,9.0,-32.0,393.0,54.0,34.0,1.0,-5.0,-24.0,66.0,-34.0,67.0,2.0,-7.0,-19.0,68.0,-17.0,40.0QW,12.0,-90.0,-84.0,6137.0,581.0,300.0,-21.0,268.0,28.0,1488.0,362.0,24.0,-51.0,185.0,70.0,-2277.0,-284.0,-111.0,-36.0,205.0,180.0,-6932.0,-707.0,-309.0,4.0,-143.0,64.0,-3019.0,-493.0,-21.0,22.0,-61.0,-1.0,-1295.0,12.0,-123.0,14.0,-73.0,13.0,-266.0,20.0,-85.0,5.0,-86.0,-10.0,21.0,-72.0,-127.0,12.0,-40.0,-31.0,258.0,-17.0,45.0,5.0,-59.0,-39.0,330.0,47.0,46.0,6.0,-13.0,-41.0,395.0,102.0,-22.0,9.0,-16.0,-30.0,479.0,8.0,86.0,3.0,18.0,-41.0,124.0,22.0,-83.0,4.0,-21.0,-20.0,372.0,9.0,124.0,-3.0,-4.0,-30.0,295.0,3.0,-7.0,0.0,-6.0,-18.0,340.0,-9.0,126.0QW,9.0,215.0,-62.0,3536.0,279.0,-91.0,-24.0,175.0,99.0,-890.0,9.0,-89.0,-27.0,275.0,64.0,-5484.0,-583.0,-236.0,-28.0,-92.0,156.0,-4039.0,-336.0,101.0,-2.0,1.0,-27.0,-1711.0,-151.0,141.0,-4.0,-127.0,-9.0,-1400.0,-100.0,-162.0,6.0,-84.0,-7.0,-1207.0,-137.0,-132.0,15.0,-122.0,-28.0,-172.0,-31.0,-251.0,21.0,-88.0,-39.0,438.0,67.0,45.0,11.0,-47.0,-65.0,637.0,113.0,-28.0,4.0,-25.0,-51.0,1052.0,18.0,123.0,4.0,25.0,-39.0,1080.0,35.0,83.0,5.0,5.0,-15.0,978.0,45.0,126.0,0.0,8.0,-8.0,627.0,21.0,41.0,-3.0,6.0,-8.0,160.0,6.0,63.0,-1.0,0.0,-3.0,-6.0,7.0,4.0QW,-40.0,122.0,-112.0,3533.0,-241.0,383.0,-44.0,199.0,65.0,-1778.0,-167.0,287.0,-51.0,235.0,63.0,-4557.0,-754.0,-592.0,30.0,12.0,194.0,-4408.0,278.0,-423.0,33.0,-51.0,13.0,-432.0,96.0,-473.0,15.0,-35.0,2.0,-1710.0,65.0,59.0,-4.0,-95.0,-16.0,-1438.0,-163.0,-179.0,4.0,-115.0,-27.0,-491.0,-89.0,-77.0,25.0,-99.0,-41.0,447.0,147.0,-151.0,8.0,-40.0,-57.0,758.0,-9.0,63.0,7.0,-4.0,-56.0,612.0,-36.0,100.0,-5.0,-20.0,-46.0,1083.0,-66.0,169.0,4.0,20.0,-21.0,1177.0,72.0,149.0,0.0,2.0,-15.0,769.0,83.0,51.0,-1.0,8.0,-9.0,160.0,45.0,9.0,-1.0,-2.0,-2.0,43.0,56.0,8.0QW,12.0,-90.0,-2.0,5110.0,733.0,184.0,-14.0,190.0,-42.0,2712.0,161.0,57.0,-41.0,225.0,64.0,-2291.0,-64.0,23.0,-28.0,248.0,82.0,-6055.0,-851.0,-99.0,-3.0,-41.0,116.0,-4918.0,-214.0,-14.0,22.0,-101.0,-16.0,-2084.0,-26.0,-183.0,3.0,-167.0,-8.0,-716.0,-62.0,-184.0,18.0,-99.0,-27.0,307.0,23.0,-298.0,15.0,-131.0,-50.0,969.0,-95.0,139.0,24.0,-6.0,-53.0,1167.0,104.0,-31.0,0.0,-41.0,-39.0,1501.0,-29.0,248.0,0.0,73.0,-23.0,1138.0,98.0,62.0,-6.0,13.0,-17.0,477.0,33.0,119.0,-1.0,1.0,-6.0,212.0,67.0,29.0,-1.0,-1.0,-1.0,96.0,42.0,-8.0,-2.0,2.0,0.0,7.0,28.0,-4.0QW,-10.0,-85.0,-62.0,5107.0,453.0,508.0,13.0,242.0,39.0,1385.0,362.0,-408.0,-61.0,225.0,34.0,-1898.0,-274.0,-12.0,-17.0,225.0,140.0,-5746.0,-472.0,-423.0,-29.0,-71.0,28.0,-2714.0,-528.0,308.0,21.0,-69.0,8.0,-2406.0,-146.0,-369.0,18.0,-86.0,-5.0,-1512.0,-157.0,-324.0,5.0,-137.0,-23.0,-1052.0,-6.0,-206.0,29.0,-121.0,-32.0,214.0,-1.0,141.0,15.0,-75.0,-61.0,805.0,100.0,98.0,12.0,-22.0,-47.0,1633.0,41.0,166.0,3.0,27.0,-52.0,1483.0,115.0,144.0,-1.0,16.0,-13.0,1236.0,70.0,134.0,-2.0,-2.0,-7.0,336.0,66.0,88.0,-3.0,-1.0,-1.0,146.0,31.0,17.0,-3.0,8.0,-4.0,1.0,-12.0,10.0QW,-7.0,-87.0,-106.0,6461.0,402.0,630.0,-23.0,269.0,42.0,2043.0,392.0,-186.0,-35.0,220.0,34.0,-2733.0,-199.0,-49.0,-12.0,207.0,184.0,-6877.0,-546.0,-636.0,11.0,-114.0,28.0,-3851.0,-464.0,231.0,6.0,-57.0,1.0,-1571.0,-112.0,-122.0,1.0,-74.0,-15.0,-1551.0,-6.0,-331.0,10.0,-133.0,-8.0,38.0,24.0,-165.0,4.0,-124.0,-38.0,795.0,-18.0,25.0,15.0,-35.0,-19.0,1633.0,152.0,282.0,-5.0,-4.0,-38.0,1111.0,-25.0,114.0,9.0,34.0,-17.0,797.0,110.0,-29.0,0.0,-15.0,-22.0,-165.0,-36.0,5.0,2.0,-7.0,-22.0,-111.0,-24.0,-60.0,1.0,-4.0,-27.0,-14.0,-78.0,59.0,2.0,-1.0,-17.0,421.0,-6.0,34.0QW,3.0,-89.0,-49.0,5239.0,522.0,516.0,0.0,254.0,12.0,2340.0,23.0,-445.0,-39.0,259.0,50.0,-2382.0,-93.0,-84.0,-29.0,220.0,131.0,-5681.0,-541.0,-513.0,-13.0,-112.0,66.0,-3754.0,-160.0,326.0,12.0,-88.0,-1.0,-1505.0,-136.0,-91.0,10.0,-82.0,14.0,-817.0,-86.0,-152.0,-3.0,-102.0,-4.0,-239.0,-76.0,-83.0,15.0,-60.0,-26.0,10.0,-77.0,-93.0,15.0,-67.0,-40.0,645.0,-4.0,60.0,14.0,-24.0,-43.0,601.0,153.0,-26.0,5.0,-36.0,-38.0,1002.0,45.0,62.0,2.0,21.0,-49.0,164.0,86.0,-99.0,4.0,-11.0,-25.0,668.0,-28.0,130.0,1.0,9.0,-26.0,197.0,3.0,62.0,8.0,-2.0,-8.0,430.0,25.0,190.0QW,-1.0,130.0,20.0,2331.0,504.0,100.0,-24.0,171.0,72.0,-267.0,-28.0,10.0,-43.0,229.0,57.0,-4426.0,-625.0,-128.0,-14.0,29.0,58.0,-3681.0,-685.0,-91.0,1.0,-61.0,-9.0,-2647.0,-178.0,-47.0,10.0,-110.0,-24.0,-1914.0,-86.0,-61.0,8.0,-140.0,-34.0,-706.0,23.0,-102.0,19.0,-89.0,-53.0,402.0,18.0,-74.0,17.0,-63.0,-55.0,1648.0,187.0,-39.0,3.0,-25.0,-54.0,895.0,118.0,-28.0,10.0,10.0,-30.0,1313.0,67.0,41.0,-1.0,39.0,-25.0,606.0,-25.0,124.0,8.0,18.0,0.0,633.0,13.0,144.0,-3.0,-11.0,1.0,271.0,2.0,55.0,0.0,-7.0,4.0,34.0,8.0,49.0,0.0,-1.0,2.0,65.0,-8.0,26.0QW,-1.0,133.0,-5.0,1354.0,483.0,736.0,-10.0,21.0,84.0,445.0,358.0,-68.0,-35.0,215.0,78.0,-4800.0,-405.0,504.0,-19.0,-16.0,102.0,-1568.0,-624.0,-801.0,-7.0,84.0,-4.0,-2506.0,-425.0,-19.0,4.0,-82.0,-39.0,-2139.0,-96.0,-241.0,17.0,-119.0,-60.0,-1933.0,49.0,-51.0,10.0,-146.0,-77.0,210.0,-102.0,102.0,10.0,-49.0,-57.0,2023.0,-51.0,115.0,0.0,2.0,-44.0,2100.0,51.0,82.0,8.0,61.0,-13.0,1261.0,143.0,-13.0,-4.0,6.0,-10.0,204.0,83.0,84.0,4.0,3.0,3.0,37.0,50.0,43.0,2.0,-5.0,0.0,109.0,13.0,25.0,-1.0,0.0,-1.0,-34.0,-3.0,28.0,0.0,3.0,-1.0,28.0,-3.0,-1.0QW,-15.0,-86.0,-76.0,5011.0,632.0,198.0,7.0,246.0,70.0,-90.0,257.0,-100.0,-41.0,275.0,70.0,-1977.0,-120.0,-51.0,-19.0,193.0,179.0,-5198.0,-705.0,-216.0,-18.0,-132.0,17.0,-1190.0,-250.0,127.0,25.0,-100.0,-12.0,-2091.0,-144.0,60.0,29.0,-71.0,-30.0,-2064.0,-53.0,57.0,5.0,-142.0,-47.0,-845.0,-211.0,-10.0,3.0,-114.0,-86.0,339.0,15.0,-165.0,3.0,-36.0,-66.0,1634.0,-46.0,-21.0,4.0,30.0,-45.0,1723.0,109.0,-51.0,6.0,32.0,-12.0,1255.0,110.0,216.0,3.0,1.0,-5.0,580.0,147.0,-22.0,-2.0,5.0,-3.0,-52.0,16.0,56.0,0.0,-2.0,1.0,91.0,13.0,17.0,-3.0,2.0,-4.0,26.0,14.0,9.0QW,-3.0,58.0,-45.0,2487.0,686.0,356.0,1.0,35.0,76.0,786.0,539.0,90.0,-29.0,282.0,90.0,-4330.0,-466.0,316.0,-41.0,80.0,137.0,-3067.0,-867.0,-398.0,-30.0,96.0,6.0,-2902.0,-723.0,-154.0,-5.0,-117.0,-37.0,-2469.0,-52.0,-39.0,42.0,-153.0,-77.0,-2135.0,96.0,-454.0,31.0,-130.0,-59.0,311.0,-36.0,-26.0,14.0,-82.0,-66.0,2084.0,-49.0,31.0,5.0,10.0,-12.0,2580.0,10.0,438.0,0.0,22.0,-32.0,935.0,175.0,137.0,-2.0,10.0,-14.0,543.0,148.0,48.0,-4.0,9.0,-9.0,123.0,62.0,79.0,-2.0,3.0,-2.0,115.0,29.0,17.0,1.0,-6.0,0.0,55.0,-9.0,16.0,1.0,-2.0,0.0,-11.0,16.0,6.0QW,-11.0,63.0,-42.0,2848.0,84.0,365.0,-26.0,134.0,78.0,-168.0,169.0,69.0,-22.0,285.0,70.0,-4524.0,-666.0,-218.0,-21.0,86.0,127.0,-3769.0,-267.0,-406.0,-5.0,9.0,-23.0,-3159.0,-417.0,-207.0,1.0,-176.0,-34.0,-2146.0,-142.0,-62.0,30.0,-155.0,-54.0,-1304.0,106.0,-320.0,19.0,-126.0,-61.0,1063.0,-182.0,97.0,12.0,-30.0,-53.0,2000.0,60.0,32.0,-3.0,6.0,-34.0,1959.0,-1.0,318.0,1.0,18.0,-21.0,969.0,228.0,52.0,-2.0,10.0,-13.0,613.0,146.0,48.0,0.0,6.0,-4.0,69.0,51.0,53.0,1.0,-2.0,1.0,133.0,25.0,24.0,-2.0,-1.0,-1.0,11.0,2.0,13.0,0.0,-1.0,2.0,111.0,20.0,12.0QW,8.0,119.0,-53.0,2857.0,263.0,263.0,-13.0,152.0,95.0,-594.0,151.0,121.0,-13.0,237.0,59.0,-3774.0,-327.0,66.0,-32.0,-15.0,140.0,-3450.0,-353.0,-278.0,-5.0,11.0,-15.0,-1779.0,-285.0,-148.0,-2.0,-112.0,-15.0,-1865.0,-51.0,-225.0,23.0,-58.0,-25.0,-1374.0,48.0,-386.0,25.0,-112.0,-45.0,-297.0,-22.0,7.0,-1.0,-92.0,-64.0,692.0,-72.0,242.0,1.0,-49.0,-54.0,1273.0,-98.0,378.0,-5.0,-14.0,-48.0,1422.0,74.0,17.0,8.0,47.0,-21.0,1232.0,124.0,-25.0,0.0,7.0,-11.0,447.0,94.0,26.0,-3.0,6.0,-8.0,145.0,41.0,7.0,0.0,-2.0,2.0,51.0,44.0,22.0,1.0,-1.0,3.0,111.0,3.0,-12.0QW,31.0,217.0,22.0,1202.0,379.0,117.0,-44.0,132.0,62.0,-215.0,-76.0,-125.0,-49.0,205.0,84.0,-5906.0,-539.0,53.0,-43.0,-87.0,67.0,-1806.0,-441.0,-149.0,27.0,13.0,15.0,-2571.0,-46.0,123.0,15.0,-49.0,-16.0,-1872.0,-47.0,-93.0,2.0,-143.0,-43.0,-1470.0,-29.0,-356.0,18.0,-100.0,-58.0,-190.0,-42.0,-193.0,11.0,-102.0,-67.0,1190.0,-143.0,57.0,15.0,10.0,-39.0,1503.0,-55.0,329.0,-4.0,-11.0,-47.0,1448.0,-5.0,207.0,-10.0,42.0,-33.0,988.0,111.0,88.0,-3.0,12.0,-18.0,446.0,135.0,66.0,0.0,0.0,-2.0,251.0,90.0,24.0,0.0,0.0,1.0,51.0,56.0,18.0,-1.0,-3.0,7.0,78.0,21.0,-10.0QW,14.0,-87.0,-64.0,5736.0,758.0,130.0,-26.0,218.0,34.0,897.0,149.0,281.0,-40.0,201.0,60.0,-1348.0,-51.0,-21.0,-20.0,216.0,162.0,-6113.0,-726.0,-128.0,3.0,-85.0,52.0,-2553.0,-248.0,-232.0,15.0,-65.0,-3.0,-2758.0,-225.0,-20.0,-5.0,-135.0,-25.0,-1525.0,-205.0,-30.0,17.0,-111.0,-26.0,112.0,41.0,-249.0,16.0,-73.0,-52.0,921.0,-18.0,9.0,7.0,-34.0,-53.0,970.0,46.0,43.0,3.0,-7.0,-50.0,919.0,-40.0,151.0,2.0,-1.0,-30.0,1011.0,58.0,68.0,4.0,43.0,-17.0,829.0,76.0,-33.0,0.0,-3.0,-9.0,212.0,86.0,82.0,-1.0,2.0,-6.0,141.0,57.0,5.0,1.0,-4.0,1.0,86.0,36.0,12.0QW,-17.0,-87.0,-122.0,5571.0,781.0,192.0,13.0,243.0,67.0,814.0,257.0,-23.0,-68.0,272.0,31.0,-534.0,-207.0,-96.0,1.0,278.0,216.0,-6427.0,-670.0,-29.0,-35.0,-92.0,7.0,-2642.0,-491.0,146.0,51.0,-110.0,-7.0,-4651.0,-24.0,-53.0,8.0,-224.0,-56.0,-1748.0,-360.0,-339.0,19.0,-174.0,-47.0,728.0,-61.0,-305.0,16.0,-47.0,-42.0,2414.0,-38.0,193.0,12.0,20.0,-25.0,2395.0,146.0,127.0,7.0,24.0,-17.0,848.0,277.0,146.0,-2.0,-21.0,-9.0,236.0,128.0,46.0,-2.0,3.0,-2.0,109.0,90.0,57.0,-2.0,7.0,-5.0,188.0,8.0,27.0,-1.0,-8.0,-1.0,138.0,-15.0,-4.0,0.0,7.0,-4.0,93.0,6.0,-32.0AQW,9.0,-95.0,-222.0,-5415.0,-571.0,-270.0,2.0,-127.0,-121.0,-572.0,-84.0,-126.0,10.0,-33.0,-107.0,3254.0,420.0,-19.0,11.0,35.0,75.0,6386.0,645.0,382.0,15.0,6.0,-11.0,4181.0,452.0,240.0,5.0,-91.0,66.0,3179.0,219.0,104.0,-30.0,60.0,68.0,1166.0,-146.0,-36.0,-18.0,72.0,124.0,-2315.0,-158.0,-119.0,-13.0,104.0,97.0,-2898.0,-310.0,-81.0,8.0,-8.0,82.0,-1864.0,74.0,-56.0,1.0,31.0,15.0,-359.0,-67.0,26.0,-5.0,0.0,10.0,-573.0,-52.0,-29.0,3.0,8.0,-3.0,-279.0,-6.0,-45.0,2.0,4.0,-3.0,-153.0,-15.0,-44.0,-1.0,-3.0,-1.0,33.0,18.0,-11.0,-2.0,0.0,2.0,94.0,-10.0,-3.0AQW,5.0,-165.0,-213.0,-3737.0,-364.0,256.0,25.0,-46.0,-126.0,1224.0,396.0,53.0,-10.0,3.0,-50.0,5261.0,456.0,177.0,8.0,80.0,76.0,5957.0,537.0,-75.0,1.0,-94.0,-13.0,4188.0,141.0,154.0,-4.0,-49.0,61.0,3302.0,340.0,137.0,4.0,119.0,115.0,-965.0,-169.0,-221.0,-24.0,97.0,165.0,-3352.0,-306.0,-142.0,-1.0,86.0,109.0,-3109.0,-370.0,-153.0,-18.0,-35.0,29.0,-910.0,28.0,74.0,5.0,20.0,3.0,-718.0,-67.0,-52.0,-5.0,-10.0,5.0,-337.0,-67.0,-92.0,2.0,-5.0,-1.0,-133.0,-11.0,-25.0,1.0,10.0,-5.0,-32.0,12.0,3.0,-1.0,-12.0,1.0,20.0,9.0,25.0,-1.0,1.0,0.0,67.0,7.0,-11.0AQW,18.0,-96.0,-243.0,-5215.0,-958.0,-960.0,20.0,-132.0,-143.0,-304.0,-335.0,-440.0,18.0,9.0,-80.0,4761.0,403.0,377.0,-9.0,43.0,83.0,6787.0,1079.0,1232.0,-11.0,-71.0,-5.0,5273.0,724.0,811.0,-10.0,-152.0,61.0,3509.0,239.0,-85.0,40.0,131.0,137.0,221.0,-243.0,-630.0,-31.0,136.0,152.0,-3615.0,-361.0,-370.0,-8.0,136.0,117.0,-3992.0,-305.0,-32.0,-49.0,-76.0,27.0,-1580.0,131.0,365.0,16.0,30.0,10.0,-493.0,9.0,65.0,2.0,-1.0,6.0,-252.0,-19.0,-33.0,-1.0,-5.0,-2.0,-60.0,-2.0,25.0,1.0,-3.0,-1.0,74.0,45.0,8.0,0.0,1.0,0.0,4.0,14.0,21.0,-1.0,5.0,0.0,15.0,4.0,-24.0AQW,16.0,-55.0,-167.0,-5749.0,-241.0,-181.0,22.0,-164.0,-188.0,-3794.0,-603.0,400.0,8.0,-76.0,-127.0,3030.0,-34.0,104.0,-16.0,51.0,-18.0,6648.0,342.0,374.0,-15.0,0.0,42.0,8266.0,756.0,-231.0,4.0,-84.0,-24.0,4419.0,328.0,-253.0,86.0,167.0,161.0,94.0,95.0,-570.0,-25.0,120.0,152.0,-3773.0,-250.0,-116.0,-11.0,130.0,194.0,-5106.0,-265.0,186.0,-84.0,-167.0,30.0,-855.0,-194.0,412.0,14.0,41.0,-2.0,-498.0,69.0,-32.0,5.0,-28.0,6.0,-103.0,-30.0,-29.0,2.0,7.0,-4.0,-57.0,-3.0,-16.0,3.0,-4.0,0.0,7.0,15.0,3.0,1.0,2.0,1.0,26.0,9.0,25.0,0.0,-1.0,1.0,67.0,5.0,-11.0AQW,9.0,-135.0,-244.0,-5343.0,-722.0,-717.0,30.0,-137.0,-112.0,-269.0,-589.0,-579.0,12.0,-50.0,-80.0,4880.0,169.0,371.0,-8.0,64.0,89.0,7410.0,841.0,1038.0,-32.0,-56.0,-85.0,6582.0,953.0,714.0,-33.0,-15.0,60.0,2322.0,-52.0,91.0,-7.0,78.0,141.0,-2016.0,-116.0,-210.0,0.0,175.0,195.0,-4941.0,-389.0,-143.0,34.0,15.0,119.0,-2939.0,-30.0,-88.0,4.0,-18.0,14.0,120.0,19.0,-109.0,-4.0,-12.0,14.0,-624.0,-39.0,0.0,4.0,-4.0,8.0,-63.0,-13.0,-67.0,2.0,7.0,-2.0,-149.0,-20.0,-1.0,-1.0,-9.0,-2.0,-13.0,5.0,53.0,-1.0,2.0,-4.0,79.0,22.0,-11.0,1.0,-3.0,1.0,105.0,14.0,5.0AQW,17.0,-150.0,-244.0,-6289.0,-667.0,-495.0,-40.0,-131.0,-97.0,883.0,-348.0,-98.0,23.0,-49.0,-66.0,5350.0,386.0,459.0,7.0,-1.0,114.0,9433.0,728.0,591.0,56.0,-41.0,-114.0,5456.0,600.0,-4.0,53.0,143.0,146.0,148.0,127.0,-369.0,-27.0,90.0,134.0,-2657.0,-88.0,-89.0,-23.0,172.0,208.0,-5530.0,-288.0,101.0,-61.0,-163.0,54.0,-943.0,-187.0,292.0,-1.0,56.0,-5.0,-327.0,36.0,-11.0,2.0,-22.0,8.0,-256.0,-30.0,-19.0,1.0,4.0,1.0,-176.0,7.0,-54.0,5.0,3.0,3.0,-64.0,9.0,-10.0,2.0,-3.0,4.0,21.0,12.0,14.0,-1.0,5.0,-4.0,24.0,-20.0,5.0,-1.0,-3.0,0.0,-23.0,-12.0,13.0AQW,3.0,-162.0,-206.0,-3300.0,-436.0,-250.0,-9.0,-81.0,-131.0,2154.0,-321.0,-152.0,1.0,6.0,-10.0,6233.0,151.0,462.0,1.0,49.0,39.0,6966.0,621.0,403.0,21.0,-51.0,-28.0,4671.0,698.0,24.0,-23.0,76.0,82.0,1205.0,-358.0,164.0,-10.0,80.0,160.0,-3005.0,-96.0,-124.0,-11.0,94.0,188.0,-4513.0,-440.0,127.0,28.0,-64.0,90.0,-1663.0,430.0,-234.0,6.0,23.0,10.0,-435.0,-52.0,-3.0,-5.0,-14.0,7.0,-351.0,-86.0,-20.0,-2.0,6.0,-1.0,-32.0,-42.0,-78.0,0.0,2.0,-3.0,-119.0,-50.0,-34.0,0.0,-5.0,-1.0,106.0,9.0,-29.0,1.0,3.0,-2.0,-85.0,1.0,19.0,0.0,-7.0,2.0,94.0,12.0,26.0AQW,15.0,-157.0,-238.0,-3842.0,-729.0,-465.0,-16.0,-75.0,-90.0,2214.0,-473.0,-332.0,2.0,81.0,9.0,6120.0,-3.0,888.0,-19.0,84.0,92.0,6029.0,657.0,726.0,23.0,-105.0,-71.0,4774.0,432.0,613.0,-16.0,-122.0,19.0,3552.0,-96.0,-201.0,-14.0,121.0,130.0,-1808.0,109.0,-78.0,-10.0,136.0,191.0,-4484.0,-110.0,-218.0,7.0,74.0,164.0,-4157.0,106.0,63.0,20.0,-58.0,20.0,-59.0,-50.0,-158.0,3.0,4.0,0.0,-403.0,-22.0,18.0,4.0,-3.0,1.0,-48.0,-14.0,-5.0,-2.0,1.0,0.0,-39.0,2.0,10.0,1.0,2.0,-2.0,-57.0,-3.0,6.0,0.0,-4.0,1.0,103.0,15.0,-5.0,0.0,2.0,0.0,17.0,-2.0,-5.0AQW,11.0,-46.0,-205.0,-5231.0,-43.0,-516.0,12.0,-170.0,-174.0,-2307.0,-257.0,88.0,10.0,-47.0,-86.0,3141.0,-197.0,93.0,-4.0,54.0,23.0,5885.0,116.0,702.0,-11.0,21.0,39.0,5763.0,156.0,153.0,2.0,-76.0,-65.0,4337.0,177.0,126.0,-13.0,60.0,95.0,2121.0,-473.0,-233.0,-17.0,97.0,139.0,-2721.0,28.0,-333.0,-4.0,123.0,212.0,-4302.0,-58.0,-196.0,2.0,-71.0,87.0,-2767.0,376.0,95.0,8.0,37.0,1.0,-205.0,12.0,117.0,0.0,-15.0,6.0,-455.0,5.0,2.0,4.0,5.0,0.0,-86.0,42.0,-15.0,1.0,-9.0,8.0,115.0,18.0,11.0,0.0,0.0,2.0,-40.0,-12.0,6.0,-2.0,-2.0,2.0,148.0,-23.0,-42.0AQW,2.0,-56.0,-195.0,-5903.0,-217.0,-335.0,24.0,-126.0,-159.0,-2722.0,-135.0,-33.0,12.0,-72.0,-104.0,3025.0,-142.0,-109.0,-4.0,43.0,28.0,6787.0,224.0,562.0,-21.0,5.0,3.0,6447.0,257.0,200.0,-5.0,-60.0,-1.0,3481.0,310.0,120.0,-8.0,44.0,93.0,1121.0,-321.0,-189.0,-12.0,101.0,144.0,-2798.0,-80.0,-152.0,-8.0,93.0,157.0,-3527.0,-160.0,26.0,7.0,-40.0,80.0,-1693.0,333.0,66.0,5.0,24.0,16.0,-562.0,-29.0,68.0,0.0,-2.0,5.0,-418.0,-56.0,-64.0,0.0,15.0,-5.0,-412.0,-43.0,-105.0,2.0,-7.0,0.0,-132.0,-9.0,-39.0,2.0,-8.0,4.0,-26.0,24.0,6.0,1.0,-8.0,4.0,96.0,20.0,32.0AQW,19.0,-161.0,-243.0,-4960.0,-969.0,-467.0,17.0,-100.0,-96.0,1525.0,-98.0,184.0,15.0,26.0,-12.0,6373.0,26.0,378.0,-3.0,24.0,106.0,7677.0,981.0,675.0,-14.0,-60.0,-83.0,4227.0,272.0,105.0,-35.0,-83.0,50.0,2487.0,-224.0,-24.0,-30.0,179.0,123.0,-2488.0,46.0,-2.0,-11.0,114.0,194.0,-3966.0,-158.0,-280.0,17.0,67.0,144.0,-3427.0,180.0,-16.0,15.0,-40.0,15.0,-95.0,-23.0,-139.0,-2.0,7.0,-2.0,-549.0,-45.0,23.0,3.0,-12.0,4.0,-155.0,-5.0,-40.0,2.0,-8.0,2.0,-105.0,0.0,-36.0,1.0,-5.0,-2.0,51.0,-7.0,15.0,-2.0,-5.0,1.0,167.0,6.0,-9.0,-1.0,-1.0,0.0,9.0,-21.0,-3.0AQW,-4.0,-116.0,-242.0,-5870.0,-497.0,-612.0,-10.0,-108.0,-129.0,-670.0,-268.0,-222.0,8.0,-19.0,-90.0,4368.0,-85.0,96.0,4.0,102.0,86.0,7270.0,513.0,776.0,10.0,34.0,-41.0,3805.0,355.0,444.0,-2.0,-115.0,36.0,2367.0,196.0,41.0,-9.0,-34.0,57.0,921.0,-128.0,-199.0,-5.0,44.0,135.0,-1573.0,-104.0,-249.0,-5.0,73.0,113.0,-2279.0,-206.0,-21.0,8.0,47.0,86.0,-1942.0,102.0,-32.0,2.0,10.0,31.0,-1114.0,16.0,-1.0,1.0,2.0,12.0,-372.0,51.0,-87.0,1.0,-4.0,12.0,-387.0,6.0,65.0,3.0,-4.0,6.0,57.0,9.0,34.0,-3.0,-5.0,3.0,-52.0,-22.0,71.0,0.0,-1.0,-3.0,-11.0,-7.0,14.0AQW,-17.0,-89.0,-235.0,-5157.0,-445.0,-573.0,-44.0,-41.0,-139.0,-837.0,-328.0,-380.0,-2.0,20.0,-87.0,2937.0,-126.0,1.0,19.0,105.0,82.0,6136.0,461.0,632.0,43.0,-18.0,-4.0,4148.0,333.0,447.0,10.0,-78.0,10.0,2777.0,315.0,14.0,-5.0,-77.0,64.0,1266.0,54.0,-36.0,3.0,7.0,111.0,-672.0,8.0,-318.0,-3.0,45.0,134.0,-1884.0,-186.0,-171.0,9.0,83.0,85.0,-1726.0,-45.0,-24.0,-7.0,58.0,41.0,-1743.0,-34.0,259.0,-2.0,6.0,18.0,-911.0,-99.0,193.0,-3.0,-11.0,5.0,-511.0,-41.0,12.0,3.0,-17.0,3.0,-262.0,-19.0,27.0,2.0,-5.0,-4.0,-2.0,11.0,-1.0,-1.0,-10.0,0.0,128.0,6.0,2.0AQW,46.0,-106.0,-140.0,-3075.0,-241.0,-615.0,-13.0,-33.0,-126.0,954.0,-362.0,-202.0,26.0,55.0,10.0,5732.0,389.0,507.0,-48.0,99.0,-16.0,4787.0,396.0,795.0,9.0,-70.0,-20.0,3951.0,500.0,447.0,-2.0,-107.0,40.0,2405.0,140.0,-42.0,-2.0,-23.0,80.0,552.0,-302.0,-293.0,7.0,68.0,148.0,-2387.0,-211.0,-280.0,3.0,64.0,107.0,-1896.0,-130.0,-48.0,5.0,25.0,72.0,-1823.0,202.0,145.0,-10.0,-1.0,31.0,-659.0,-15.0,141.0,-6.0,6.0,18.0,-798.0,-50.0,76.0,-3.0,2.0,5.0,-402.0,-41.0,3.0,-1.0,-11.0,0.0,-153.0,-25.0,-43.0,-1.0,-1.0,-3.0,-79.0,-7.0,-8.0,1.0,-6.0,-2.0,109.0,14.0,-16.0AQW,18.0,-141.0,-170.0,-3642.0,-244.0,-273.0,6.0,-5.0,-113.0,966.0,-216.0,-324.0,13.0,92.0,4.0,5448.0,214.0,367.0,-17.0,158.0,13.0,5344.0,371.0,513.0,1.0,-65.0,-36.0,3724.0,367.0,442.0,10.0,-115.0,7.0,2763.0,359.0,23.0,-14.0,-27.0,46.0,1184.0,-280.0,-263.0,-4.0,