Lable,AccX1,AccY1,AccZ1,GyrX1,GyrY1,GyrZ1,AccX2,AccY2,AccZ2,GyrX2,GyrY2,GyrZ2,AccX3,AccY3,AccZ3,GyrX3,GyrY3,GyrZ3,AccX4,AccY4,AccZ4,GyrX4,GyrY4,GyrZ4,AccX5,AccY5,AccZ5,GyrX5,GyrY5,GyrZ5,AccX6,AccY6,AccZ6,GyrX6,GyrY6,GyrZ6,AccX7,AccY7,AccZ7,GyrX7,GyrY7,GyrZ7,AccX8,AccY8,AccZ8,GyrX8,GyrY8,GyrZ8,AccX9,AccY9,AccZ9,GyrX9,GyrY9,GyrZ9,AccX10,AccY10,AccZ10,GyrX10,GyrY10,GyrZ10,AccX11,AccY11,AccZ11,GyrX11,GyrY11,GyrZ11,AccX12,AccY12,AccZ12,GyrX12,GyrY12,GyrZ12,AccX13,AccY13,AccZ13,GyrX13,GyrY13,GyrZ13,AccX14,AccY14,AccZ14,GyrX14,GyrY14,GyrZ14,AccX15,AccY15,AccZ15,GyrX15,GyrY15,GyrZ15,AccX16,AccY16,AccZ16,GyrX16,GyrY16,GyrZ16UP,-49.0,-2.0,97.0,-232.0,-1212.0,-373.0,-38.0,-17.0,-68.0,-466.0,-1580.0,-665.0,5.0,42.0,-210.0,-371.0,-978.0,-564.0,92.0,134.0,-259.0,117.0,722.0,210.0,86.0,130.0,-118.0,220.0,1907.0,1106.0,48.0,3.0,19.0,-81.0,2057.0,1363.0,-35.0,-162.0,141.0,106.0,1398.0,747.0,-33.0,-133.0,176.0,-7.0,305.0,6.0,-15.0,-55.0,119.0,-103.0,-391.0,-267.0,5.0,7.0,44.0,16.0,-549.0,-393.0,-7.0,16.0,-4.0,184.0,-448.0,-327.0,-11.0,9.0,-4.0,162.0,-399.0,-300.0,-13.0,11.0,-15.0,-92.0,-399.0,-189.0,-4.0,7.0,-21.0,-90.0,-293.0,-132.0,-3.0,9.0,-29.0,34.0,-102.0,-74.0,4.0,10.0,-17.0,123.0,43.0,-12.0UP,-42.0,-2.0,99.0,-38.0,-943.0,-279.0,-40.0,-10.0,3.0,-208.0,-1385.0,-448.0,-31.0,42.0,-183.0,-787.0,-1422.0,-585.0,39.0,87.0,-231.0,101.0,-92.0,-424.0,76.0,177.0,-177.0,122.0,1116.0,538.0,62.0,85.0,-55.0,192.0,2054.0,1393.0,15.0,-50.0,40.0,-228.0,2226.0,1489.0,-42.0,-211.0,155.0,-113.0,1377.0,733.0,-30.0,-132.0,215.0,35.0,94.0,-206.0,4.0,-77.0,149.0,-95.0,-959.0,-559.0,18.0,30.0,41.0,284.0,-1044.0,-712.0,11.0,31.0,-72.0,-122.0,-762.0,-433.0,-3.0,37.0,-66.0,309.0,-174.0,-276.0,-8.0,21.0,-36.0,-194.0,-117.0,-106.0,0.0,15.0,-8.0,54.0,-11.0,-47.0,1.0,4.0,4.0,-38.0,-26.0,20.0UP,-61.0,-34.0,25.0,-410.0,-1544.0,-613.0,-62.0,1.0,-139.0,-305.0,-1837.0,-886.0,18.0,142.0,-254.0,-436.0,-503.0,-475.0,72.0,181.0,-200.0,290.0,1451.0,598.0,66.0,113.0,-58.0,-85.0,2377.0,1526.0,17.0,-72.0,63.0,-181.0,2197.0,1534.0,-16.0,-192.0,163.0,-32.0,1270.0,850.0,-27.0,-130.0,197.0,-53.0,83.0,-77.0,-6.0,-86.0,153.0,181.0,-852.0,-613.0,5.0,32.0,33.0,69.0,-1114.0,-755.0,13.0,28.0,-59.0,22.0,-755.0,-440.0,-3.0,29.0,-65.0,117.0,-243.0,-256.0,-3.0,22.0,-33.0,-64.0,-133.0,-67.0,-1.0,3.0,-8.0,16.0,-22.0,-21.0,-3.0,1.0,1.0,30.0,-12.0,17.0,-1.0,-6.0,0.0,53.0,-20.0,-19.0UP,-60.0,26.0,99.0,145.0,-1028.0,-18.0,-71.0,-10.0,-39.0,1.0,-1704.0,-490.0,-34.0,68.0,-185.0,-793.0,-1215.0,-357.0,81.0,71.0,-255.0,-354.0,226.0,-333.0,99.0,133.0,-148.0,-389.0,1587.0,688.0,54.0,31.0,-31.0,-178.0,1853.0,999.0,-10.0,-70.0,81.0,-49.0,1697.0,918.0,-41.0,-124.0,128.0,175.0,1058.0,350.0,-35.0,-85.0,144.0,262.0,404.0,-132.0,-14.0,-41.0,134.0,59.0,-373.0,-335.0,5.0,-11.0,80.0,-132.0,-808.0,-454.0,4.0,12.0,-1.0,-231.0,-916.0,-346.0,-2.0,7.0,-50.0,227.0,-530.0,-338.0,-6.0,24.0,-51.0,66.0,-283.0,-148.0,1.0,9.0,-32.0,184.0,-51.0,-84.0,1.0,11.0,-14.0,-36.0,-39.0,37.0UP,-24.0,-20.0,43.0,-56.0,-1227.0,-585.0,-14.0,1.0,-101.0,-181.0,-1217.0,-573.0,1.0,46.0,-189.0,201.0,-340.0,-286.0,41.0,135.0,-185.0,23.0,642.0,297.0,52.0,118.0,-92.0,-157.0,1190.0,778.0,48.0,64.0,-32.0,-600.0,1378.0,1108.0,6.0,-57.0,36.0,-223.0,1400.0,990.0,-30.0,-102.0,79.0,-205.0,1100.0,653.0,-43.0,-122.0,133.0,297.0,648.0,77.0,-36.0,-70.0,158.0,-69.0,-251.0,-279.0,-8.0,-35.0,103.0,154.0,-774.0,-550.0,15.0,20.0,21.0,-101.0,-891.0,-482.0,17.0,8.0,-49.0,262.0,-518.0,-380.0,-2.0,40.0,-52.0,27.0,-312.0,-172.0,-8.0,5.0,-38.0,-21.0,-160.0,-74.0,-9.0,8.0,-18.0,-5.0,-51.0,-6.0UP,-51.0,-5.0,102.0,-24.0,-987.0,-443.0,-39.0,-12.0,-12.0,-152.0,-1702.0,-677.0,-10.0,65.0,-166.0,-227.0,-1291.0,-464.0,74.0,88.0,-227.0,79.0,291.0,132.0,67.0,116.0,-151.0,-170.0,1446.0,723.0,47.0,53.0,-51.0,-358.0,1688.0,998.0,4.0,-34.0,30.0,-372.0,1489.0,935.0,-22.0,-94.0,93.0,-176.0,1173.0,638.0,-35.0,-101.0,153.0,125.0,596.0,195.0,-28.0,-79.0,154.0,-15.0,-348.0,-245.0,-6.0,-19.0,81.0,174.0,-812.0,-509.0,12.0,-1.0,-8.0,35.0,-785.0,-470.0,6.0,29.0,-47.0,288.0,-397.0,-355.0,-4.0,7.0,-34.0,-10.0,-248.0,-167.0,-9.0,17.0,-23.0,-8.0,-138.0,-91.0,-6.0,3.0,-14.0,6.0,-60.0,-21.0UP,-54.0,-10.0,71.0,-145.0,-1426.0,-568.0,-67.0,35.0,-113.0,-394.0,-1755.0,-665.0,12.0,113.0,-237.0,-681.0,-945.0,-305.0,86.0,140.0,-243.0,197.0,1201.0,502.0,81.0,110.0,-78.0,-128.0,2232.0,1264.0,29.0,-46.0,56.0,-107.0,2245.0,1352.0,-38.0,-170.0,170.0,-39.0,1245.0,758.0,-29.0,-129.0,189.0,-19.0,89.0,-20.0,-12.0,-83.0,116.0,-59.0,-651.0,-435.0,1.0,25.0,27.0,-125.0,-862.0,-591.0,13.0,18.0,-30.0,43.0,-641.0,-491.0,-3.0,23.0,-24.0,185.0,-359.0,-319.0,0.0,6.0,-26.0,87.0,-228.0,-151.0,-8.0,10.0,-27.0,73.0,-112.0,-73.0,1.0,12.0,-17.0,32.0,-27.0,-29.0,4.0,2.0,-2.0,74.0,34.0,29.0UP,-49.0,-10.0,104.0,122.0,-1093.0,-492.0,-66.0,-18.0,-14.0,-196.0,-1679.0,-699.0,-26.0,71.0,-198.0,-640.0,-1454.0,-644.0,65.0,132.0,-261.0,150.0,480.0,27.0,79.0,148.0,-156.0,47.0,1822.0,945.0,41.0,61.0,-31.0,-1.0,2147.0,1433.0,-7.0,-88.0,78.0,-634.0,1707.0,1290.0,-30.0,-170.0,158.0,9.0,1027.0,596.0,-30.0,-127.0,204.0,-37.0,-7.0,-101.0,-4.0,-110.0,159.0,187.0,-884.0,-570.0,11.0,26.0,29.0,121.0,-1257.0,-799.0,24.0,20.0,-81.0,246.0,-726.0,-592.0,5.0,84.0,-86.0,260.0,-206.0,-339.0,2.0,22.0,-36.0,32.0,61.0,-31.0,-9.0,13.0,3.0,-26.0,15.0,81.0,-6.0,-11.0,9.0,-87.0,-68.0,58.0UP,-30.0,-13.0,104.0,307.0,-690.0,-328.0,-54.0,-47.0,55.0,122.0,-1416.0,-587.0,-63.0,15.0,-148.0,-203.0,-1687.0,-704.0,12.0,119.0,-256.0,-224.0,-473.0,-240.0,51.0,193.0,-239.0,-199.0,1151.0,703.0,59.0,109.0,-89.0,-69.0,2199.0,1305.0,29.0,-48.0,49.0,-246.0,2168.0,1289.0,6.0,-186.0,161.0,-136.0,1427.0,732.0,-17.0,-143.0,189.0,-35.0,389.0,72.0,-14.0,-86.0,161.0,-52.0,-539.0,-365.0,-13.0,33.0,56.0,136.0,-991.0,-658.0,17.0,14.0,-7.0,166.0,-786.0,-516.0,6.0,18.0,-47.0,168.0,-485.0,-342.0,3.0,4.0,-49.0,116.0,-239.0,-205.0,-8.0,33.0,-37.0,-146.0,-165.0,-69.0,-1.0,12.0,-11.0,101.0,31.0,-33.0UP,-65.0,-12.0,83.0,-96.0,-1312.0,-512.0,-65.0,2.0,-71.0,61.0,-1735.0,-572.0,-16.0,111.0,-231.0,-764.0,-1175.0,-342.0,71.0,139.0,-259.0,46.0,814.0,302.0,74.0,135.0,-120.0,-381.0,1857.0,950.0,55.0,9.0,23.0,-88.0,2110.0,1194.0,5.0,-120.0,130.0,-371.0,1432.0,987.0,-8.0,-152.0,160.0,193.0,733.0,258.0,-11.0,-98.0,156.0,0.0,-8.0,-125.0,-8.0,-41.0,90.0,436.0,-464.0,-533.0,-8.0,22.0,27.0,40.0,-760.0,-516.0,-15.0,31.0,-34.0,37.0,-670.0,-429.0,-18.0,38.0,-49.0,-126.0,-459.0,-229.0,-9.0,1.0,-34.0,-129.0,-222.0,-114.0,5.0,3.0,-13.0,4.0,-83.0,-36.0,13.0,-2.0,1.0,124.0,-6.0,32.0UP,-20.0,-57.0,101.0,726.0,-555.0,-455.0,-54.0,-10.0,41.0,49.0,-1349.0,-536.0,-53.0,20.0,-154.0,-100.0,-1466.0,-639.0,9.0,159.0,-243.0,-567.0,-464.0,-151.0,71.0,153.0,-206.0,-111.0,1002.0,499.0,72.0,119.0,-63.0,-203.0,1858.0,1255.0,31.0,-44.0,38.0,-290.0,1923.0,1382.0,-11.0,-146.0,119.0,-199.0,1500.0,893.0,-25.0,-150.0,165.0,236.0,710.0,113.0,-13.0,-102.0,169.0,196.0,-239.0,-406.0,-5.0,-22.0,77.0,164.0,-867.0,-618.0,1.0,37.0,-6.0,-223.0,-953.0,-494.0,-2.0,35.0,-51.0,-32.0,-570.0,-346.0,-10.0,41.0,-37.0,28.0,-316.0,-192.0,-4.0,-4.0,-23.0,96.0,-131.0,-89.0,-6.0,8.0,-16.0,0.0,-76.0,-26.0UP,-54.0,-17.0,88.0,99.0,-1257.0,-553.0,-50.0,15.0,-90.0,-55.0,-1765.0,-599.0,-20.0,92.0,-231.0,-195.0,-962.0,-258.0,69.0,142.0,-267.0,-199.0,897.0,417.0,72.0,117.0,-96.0,-171.0,2076.0,1028.0,65.0,10.0,33.0,-392.0,2061.0,1179.0,-4.0,-128.0,126.0,-76.0,1417.0,781.0,-24.0,-124.0,175.0,58.0,585.0,147.0,-26.0,-88.0,143.0,-21.0,-219.0,-207.0,-3.0,-22.0,88.0,58.0,-662.0,-384.0,8.0,-7.0,10.0,47.0,-715.0,-411.0,-2.0,21.0,-32.0,62.0,-475.0,-337.0,-9.0,21.0,-32.0,66.0,-356.0,-235.0,-10.0,12.0,-29.0,-38.0,-217.0,-112.0,-10.0,15.0,-14.0,98.0,-118.0,-68.0,1.0,1.0,-8.0,41.0,-69.0,-36.0UP,-65.0,-1.0,48.0,104.0,-1393.0,-497.0,-50.0,21.0,-127.0,-58.0,-1565.0,-597.0,-3.0,142.0,-255.0,-371.0,-495.0,-42.0,87.0,127.0,-220.0,-109.0,1129.0,469.0,75.0,110.0,-67.0,-280.0,1861.0,1108.0,38.0,-34.0,47.0,-221.0,1822.0,1061.0,-18.0,-104.0,103.0,-375.0,1286.0,709.0,-17.0,-133.0,143.0,99.0,759.0,249.0,-19.0,-95.0,167.0,-64.0,-43.0,-142.0,13.0,-47.0,116.0,124.0,-709.0,-377.0,-7.0,19.0,17.0,-49.0,-925.0,-481.0,-4.0,24.0,-49.0,195.0,-617.0,-418.0,-12.0,29.0,-52.0,178.0,-310.0,-282.0,-8.0,20.0,-28.0,42.0,-143.0,-92.0,-2.0,2.0,-13.0,35.0,-86.0,-12.0,-5.0,3.0,-10.0,-3.0,-37.0,7.0UP,-60.0,-38.0,42.0,113.0,-1406.0,-702.0,-45.0,48.0,-155.0,105.0,-1571.0,-757.0,18.0,206.0,-284.0,-389.0,-61.0,-57.0,79.0,182.0,-217.0,-110.0,1654.0,956.0,65.0,69.0,-21.0,-547.0,2253.0,1494.0,24.0,-137.0,141.0,-347.0,1660.0,1194.0,-5.0,-168.0,190.0,-150.0,642.0,395.0,-7.0,-108.0,152.0,69.0,-115.0,-131.0,-8.0,-27.0,72.0,132.0,-540.0,-417.0,-5.0,14.0,9.0,51.0,-663.0,-517.0,-8.0,24.0,-16.0,117.0,-564.0,-451.0,-10.0,17.0,-23.0,112.0,-434.0,-283.0,-5.0,9.0,-31.0,83.0,-261.0,-142.0,0.0,-1.0,-28.0,44.0,-60.0,-65.0,7.0,3.0,-14.0,83.0,68.0,-23.0,2.0,6.0,-3.0,19.0,50.0,26.0UP,-26.0,-47.0,54.0,32.0,-1011.0,-472.0,-39.0,20.0,-87.0,-87.0,-1284.0,-552.0,3.0,75.0,-203.0,-357.0,-656.0,-356.0,54.0,163.0,-193.0,57.0,749.0,368.0,66.0,89.0,-66.0,-156.0,1556.0,979.0,39.0,-7.0,25.0,-218.0,1774.0,1114.0,-27.0,-128.0,123.0,-192.0,1249.0,705.0,-45.0,-116.0,167.0,30.0,330.0,86.0,-35.0,-60.0,129.0,-220.0,-521.0,-270.0,-6.0,-2.0,56.0,29.0,-831.0,-478.0,8.0,14.0,-19.0,18.0,-688.0,-402.0,8.0,12.0,-48.0,302.0,-374.0,-271.0,-1.0,14.0,-45.0,54.0,-194.0,-136.0,1.0,11.0,-28.0,64.0,-52.0,-48.0,0.0,8.0,-7.0,18.0,7.0,-7.0,0.0,-1.0,0.0,13.0,26.0,27.0UP,-58.0,-34.0,60.0,133.0,-1285.0,-610.0,-58.0,26.0,-129.0,249.0,-1499.0,-696.0,26.0,147.0,-232.0,-361.0,-534.0,-181.0,92.0,185.0,-219.0,-96.0,1121.0,664.0,80.0,95.0,-56.0,-320.0,1803.0,1115.0,31.0,-43.0,54.0,-474.0,1776.0,1094.0,-28.0,-174.0,169.0,68.0,1054.0,477.0,-33.0,-112.0,173.0,-164.0,60.0,-28.0,-15.0,-63.0,124.0,235.0,-466.0,-286.0,7.0,-2.0,26.0,-42.0,-716.0,-456.0,9.0,24.0,-37.0,38.0,-543.0,-311.0,-8.0,22.0,-45.0,8.0,-345.0,-248.0,-12.0,21.0,-34.0,-3.0,-165.0,-86.0,-3.0,-5.0,-5.0,254.0,19.0,-49.0,4.0,4.0,-2.0,32.0,-64.0,-6.0,0.0,6.0,-7.0,-21.0,-44.0,3.0UP,-57.0,3.0,102.0,326.0,-1134.0,-162.0,-64.0,-27.0,-103.0,-412.0,-1705.0,-524.0,4.0,123.0,-284.0,-80.0,-591.0,-353.0,103.0,128.0,-300.0,-184.0,1215.0,155.0,72.0,124.0,-79.0,123.0,2304.0,932.0,-5.0,-49.0,103.0,-705.0,1936.0,970.0,-38.0,-148.0,253.0,-44.0,1122.0,400.0,-43.0,-111.0,239.0,-43.0,-144.0,-125.0,-3.0,-22.0,154.0,129.0,-833.0,-224.0,14.0,6.0,-13.0,-26.0,-1108.0,-349.0,31.0,36.0,-88.0,165.0,-511.0,-167.0,7.0,5.0,-78.0,169.0,-218.0,-80.0,-12.0,9.0,-30.0,40.0,-25.0,-4.0,-1.0,4.0,7.0,162.0,-17.0,-42.0,-3.0,12.0,8.0,-21.0,-70.0,-34.0,-12.0,16.0,-8.0,-58.0,-62.0,51.0UP,-51.0,-36.0,99.0,672.0,-737.0,-238.0,-70.0,-48.0,12.0,12.0,-1727.0,-704.0,-38.0,65.0,-246.0,-24.0,-1697.0,-638.0,55.0,180.0,-324.0,-654.0,81.0,-29.0,93.0,170.0,-205.0,-159.0,1961.0,1072.0,88.0,18.0,52.0,-240.0,2452.0,1385.0,8.0,-146.0,175.0,-151.0,1689.0,941.0,-23.0,-147.0,180.0,266.0,707.0,88.0,-37.0,-82.0,140.0,-70.0,-97.0,-271.0,-4.0,-34.0,107.0,274.0,-503.0,-415.0,5.0,-3.0,47.0,-10.0,-702.0,-352.0,-9.0,49.0,-20.0,8.0,-754.0,-269.0,-10.0,22.0,-49.0,-69.0,-550.0,-266.0,-4.0,28.0,-55.0,-47.0,-294.0,-106.0,6.0,-7.0,-31.0,154.0,-3.0,-61.0,5.0,8.0,-12.0,25.0,33.0,39.0UP,-43.0,-77.0,100.0,-143.0,-677.0,-688.0,-37.0,-23.0,-27.0,179.0,-1538.0,-969.0,-30.0,58.0,-182.0,426.0,-1359.0,-766.0,65.0,213.0,-267.0,637.0,-104.0,101.0,61.0,168.0,-163.0,-258.0,1699.0,1299.0,57.0,51.0,-38.0,-510.0,2195.0,1580.0,-12.0,-103.0,103.0,-772.0,1920.0,1399.0,-35.0,-164.0,162.0,-148.0,819.0,456.0,-29.0,-126.0,167.0,-22.0,-144.0,-132.0,-16.0,-72.0,119.0,92.0,-762.0,-522.0,2.0,21.0,42.0,191.0,-850.0,-628.0,9.0,38.0,-22.0,-57.0,-692.0,-470.0,6.0,39.0,-57.0,154.0,-450.0,-287.0,6.0,9.0,-45.0,29.0,-220.0,-111.0,-2.0,10.0,-31.0,252.0,49.0,-51.0,-1.0,-3.0,1.0,67.0,65.0,4.0UP,-53.0,-14.0,102.0,319.0,-846.0,-446.0,-47.0,-25.0,-30.0,-47.0,-1563.0,-734.0,-23.0,75.0,-196.0,-119.0,-1349.0,-671.0,53.0,117.0,-252.0,-144.0,32.0,-8.0,64.0,173.0,-151.0,-221.0,1507.0,843.0,46.0,62.0,-16.0,-270.0,1955.0,1335.0,29.0,-57.0,73.0,-361.0,1788.0,1209.0,-34.0,-142.0,116.0,-119.0,1105.0,744.0,-47.0,-135.0,148.0,-4.0,395.0,84.0,-27.0,-92.0,138.0,-215.0,-497.0,-360.0,15.0,-18.0,68.0,55.0,-887.0,-598.0,18.0,3.0,0.0,234.0,-784.0,-454.0,3.0,26.0,-49.0,427.0,-453.0,-361.0,-13.0,36.0,-41.0,99.0,-256.0,-191.0,-6.0,16.0,-38.0,-235.0,-241.0,-144.0,-3.0,6.0,-18.0,4.0,-43.0,-68.0UP,-24.0,-80.0,-53.0,886.0,673.0,-1447.0,-76.0,18.0,11.0,884.0,626.0,-1874.0,-86.0,183.0,51.0,723.0,47.0,-1658.0,-17.0,246.0,99.0,-500.0,-571.0,455.0,67.0,241.0,72.0,-859.0,-751.0,1796.0,57.0,66.0,37.0,-615.0,-430.0,2409.0,40.0,-58.0,-21.0,-729.0,-360.0,2191.0,10.0,-247.0,-54.0,-400.0,-268.0,1315.0,10.0,-237.0,-55.0,-169.0,-220.0,56.0,20.0,-156.0,-28.0,214.0,23.0,-671.0,3.0,-29.0,-23.0,353.0,174.0,-974.0,-3.0,52.0,0.0,173.0,310.0,-653.0,-8.0,32.0,4.0,283.0,244.0,-481.0,-4.0,29.0,10.0,45.0,181.0,-327.0,-10.0,19.0,4.0,67.0,99.0,-285.0,-10.0,20.0,6.0,156.0,72.0,-157.0UP,11.0,-90.0,-40.0,562.0,403.0,-784.0,-51.0,-82.0,-31.0,701.0,475.0,-1795.0,-101.0,146.0,12.0,894.0,128.0,-1764.0,-51.0,294.0,83.0,-249.0,-259.0,-6.0,40.0,280.0,87.0,-917.0,-581.0,2061.0,83.0,38.0,47.0,-1069.0,-505.0,2600.0,46.0,-176.0,-28.0,-699.0,-460.0,1806.0,19.0,-214.0,-48.0,42.0,-237.0,663.0,10.0,-167.0,-43.0,255.0,-100.0,-178.0,2.0,-78.0,-28.0,18.0,118.0,-560.0,-4.0,-18.0,-13.0,160.0,237.0,-821.0,-9.0,33.0,1.0,120.0,280.0,-710.0,-9.0,36.0,11.0,293.0,246.0,-500.0,-10.0,35.0,6.0,82.0,126.0,-223.0,-6.0,19.0,5.0,60.0,57.0,-81.0,-4.0,14.0,3.0,118.0,-11.0,-3.0UP,-8.0,-82.0,-38.0,679.0,545.0,-1316.0,-63.0,20.0,12.0,914.0,399.0,-1708.0,-94.0,257.0,42.0,414.0,-261.0,-961.0,-15.0,249.0,88.0,-630.0,-538.0,996.0,59.0,159.0,46.0,-1203.0,-609.0,2150.0,69.0,-84.0,22.0,-597.0,-199.0,2089.0,36.0,-157.0,-39.0,-584.0,-407.0,1447.0,14.0,-193.0,-60.0,-64.0,-189.0,403.0,5.0,-141.0,-53.0,63.0,-35.0,-457.0,1.0,-56.0,-27.0,347.0,237.0,-847.0,-11.0,9.0,4.0,414.0,285.0,-810.0,-18.0,51.0,16.0,160.0,253.0,-496.0,-15.0,46.0,16.0,175.0,147.0,-260.0,-9.0,26.0,7.0,-58.0,56.0,-96.0,-1.0,7.0,-3.0,41.0,3.0,-87.0,-3.0,5.0,-4.0,-101.0,21.0,-30.0UP,-11.0,-94.0,-67.0,811.0,648.0,-1441.0,-72.0,-3.0,-13.0,769.0,613.0,-1903.0,-105.0,197.0,56.0,1247.0,-15.0,-1407.0,-21.0,304.0,112.0,-941.0,-705.0,1017.0,42.0,198.0,65.0,-1055.0,-777.0,2228.0,86.0,-4.0,30.0,-1293.0,-298.0,2339.0,42.0,-190.0,-43.0,-574.0,-270.0,1640.0,21.0,-231.0,-58.0,25.0,-232.0,623.0,-3.0,-168.0,-59.0,-186.0,-149.0,-238.0,-2.0,-90.0,-28.0,602.0,227.0,-936.0,6.0,0.0,0.0,242.0,369.0,-984.0,-4.0,44.0,20.0,500.0,323.0,-783.0,-11.0,63.0,23.0,85.0,151.0,-392.0,-16.0,50.0,10.0,102.0,42.0,-171.0,-7.0,24.0,2.0,-7.0,-4.0,42.0,4.0,1.0,2.0,23.0,2.0,95.0UP,-44.0,-61.0,-30.0,662.0,527.0,-1643.0,-73.0,126.0,14.0,991.0,162.0,-1764.0,-61.0,299.0,72.0,-18.0,-383.0,-234.0,20.0,263.0,73.0,-878.0,-633.0,1900.0,62.0,46.0,25.0,-1157.0,-370.0,2658.0,45.0,-185.0,-24.0,-754.0,-148.0,2249.0,28.0,-260.0,-50.0,-44.0,-182.0,745.0,9.0,-181.0,-43.0,176.0,-118.0,-514.0,-4.0,-75.0,-17.0,345.0,120.0,-1063.0,-9.0,30.0,2.0,278.0,232.0,-974.0,-15.0,55.0,11.0,132.0,227.0,-564.0,-10.0,44.0,7.0,183.0,140.0,-373.0,0.0,34.0,8.0,42.0,74.0,-116.0,-3.0,14.0,1.0,55.0,2.0,-2.0,-2.0,6.0,0.0,-58.0,-1.0,28.0,0.0,1.0,4.0,-13.0,8.0,-8.0UP,-23.0,-85.0,-41.0,544.0,319.0,-1400.0,-75.0,-2.0,-29.0,643.0,434.0,-1942.0,-107.0,245.0,20.0,572.0,-157.0,-1361.0,-3.0,297.0,91.0,-569.0,-397.0,1083.0,58.0,187.0,66.0,-1102.0,-618.0,2492.0,84.0,-65.0,13.0,-944.0,-198.0,2497.0,34.0,-245.0,-44.0,-508.0,-293.0,1689.0,15.0,-247.0,-61.0,-57.0,-122.0,195.0,10.0,-147.0,-33.0,224.0,81.0,-837.0,0.0,-8.0,-7.0,460.0,280.0,-1212.0,-5.0,62.0,20.0,390.0,188.0,-802.0,-18.0,51.0,11.0,183.0,77.0,-394.0,-12.0,44.0,0.0,54.0,71.0,-162.0,-4.0,17.0,1.0,6.0,96.0,-45.0,1.0,5.0,1.0,-44.0,58.0,12.0,1.0,-2.0,3.0,22.0,8.0,-5.0UP,-13.0,-88.0,-60.0,417.0,508.0,-1145.0,-70.0,-44.0,-21.0,842.0,667.0,-2034.0,-138.0,211.0,22.0,1111.0,-99.0,-1624.0,-22.0,275.0,110.0,-536.0,-453.0,484.0,55.0,268.0,77.0,-792.0,-732.0,2338.0,114.0,22.0,42.0,-1318.0,-213.0,2757.0,18.0,-159.0,-59.0,-878.0,-549.0,2125.0,2.0,-299.0,-82.0,-448.0,-413.0,883.0,13.0,-233.0,-67.0,120.0,-169.0,-587.0,27.0,-72.0,-5.0,886.0,364.0,-1152.0,15.0,54.0,28.0,415.0,381.0,-1141.0,-16.0,75.0,26.0,277.0,287.0,-557.0,-15.0,42.0,9.0,88.0,124.0,-317.0,-14.0,33.0,1.0,20.0,83.0,-129.0,-4.0,11.0,5.0,-39.0,56.0,-41.0,-1.0,1.0,7.0,32.0,-8.0,-22.0UP,-53.0,-63.0,-34.0,477.0,392.0,-1704.0,-71.0,134.0,25.0,936.0,202.0,-1690.0,-74.0,218.0,47.0,-277.0,-336.0,-493.0,51.0,325.0,85.0,11.0,-483.0,1275.0,65.0,126.0,44.0,-1173.0,-517.0,2479.0,54.0,-28.0,-18.0,-829.0,-367.0,2481.0,-3.0,-275.0,-63.0,-1246.0,-381.0,1842.0,0.0,-245.0,-64.0,47.0,-127.0,254.0,7.0,-168.0,-35.0,210.0,-86.0,-575.0,10.0,-29.0,-3.0,634.0,272.0,-1039.0,3.0,18.0,10.0,348.0,208.0,-886.0,-8.0,42.0,12.0,303.0,282.0,-678.0,-14.0,46.0,10.0,181.0,204.0,-422.0,-13.0,47.0,7.0,86.0,117.0,-234.0,-6.0,29.0,12.0,-5.0,56.0,-36.0,3.0,9.0,6.0,-79.0,-28.0,48.0UP,-38.0,-83.0,-45.0,667.0,509.0,-1547.0,-77.0,68.0,0.0,863.0,336.0,-1897.0,-102.0,231.0,28.0,450.0,-310.0,-1141.0,22.0,307.0,101.0,-738.0,-553.0,1118.0,77.0,169.0,62.0,-791.0,-625.0,2315.0,80.0,-28.0,24.0,-1046.0,-284.0,2587.0,13.0,-203.0,-56.0,-598.0,-397.0,1846.0,-8.0,-246.0,-80.0,-505.0,-205.0,621.0,15.0,-185.0,-52.0,213.0,-72.0,-539.0,20.0,-85.0,-21.0,646.0,231.0,-1100.0,9.0,27.0,14.0,567.0,356.0,-1018.0,-11.0,58.0,23.0,284.0,293.0,-588.0,-16.0,60.0,23.0,94.0,178.0,-322.0,-12.0,34.0,9.0,-2.0,5.0,-103.0,-6.0,15.0,3.0,-6.0,27.0,-41.0,-1.0,7.0,-2.0,-38.0,20.0,10.0UP,-11.0,-87.0,-49.0,612.0,546.0,-1234.0,-59.0,10.0,-21.0,863.0,487.0,-1699.0,-111.0,188.0,35.0,899.0,-97.0,-1229.0,-12.0,294.0,98.0,-544.0,-543.0,546.0,49.0,213.0,83.0,-929.0,-656.0,1684.0,79.0,55.0,45.0,-1154.0,-382.0,2066.0,37.0,-114.0,-27.0,-744.0,-385.0,1813.0,18.0,-212.0,-55.0,-293.0,-421.0,1138.0,6.0,-191.0,-70.0,-81.0,-155.0,282.0,10.0,-158.0,-37.0,398.0,-19.0,-505.0,1.0,-48.0,-10.0,444.0,299.0,-835.0,-7.0,12.0,9.0,346.0,245.0,-785.0,-20.0,51.0,10.0,256.0,342.0,-580.0,-17.0,69.0,12.0,37.0,208.0,-343.0,-17.0,25.0,9.0,-50.0,57.0,-181.0,-3.0,13.0,7.0,30.0,67.0,-5.0UP,13.0,-86.0,-40.0,445.0,500.0,-1062.0,-49.0,-19.0,-11.0,817.0,386.0,-1458.0,-83.0,154.0,37.0,565.0,86.0,-1187.0,-36.0,291.0,94.0,-45.0,-454.0,224.0,39.0,232.0,84.0,-956.0,-511.0,1501.0,73.0,77.0,44.0,-733.0,-418.0,2066.0,36.0,-129.0,-26.0,-750.0,-225.0,1813.0,11.0,-190.0,-59.0,-243.0,-333.0,940.0,11.0,-196.0,-55.0,-93.0,-243.0,183.0,5.0,-129.0,-46.0,37.0,-149.0,-375.0,17.0,-60.0,-14.0,368.0,237.0,-732.0,-9.0,20.0,-6.0,147.0,250.0,-763.0,-8.0,42.0,17.0,461.0,360.0,-602.0,-25.0,62.0,16.0,138.0,146.0,-325.0,-13.0,32.0,20.0,120.0,64.0,-97.0,-5.0,17.0,7.0,-75.0,-44.0,4.0UP,25.0,-90.0,-46.0,189.0,366.0,-568.0,-30.0,-82.0,-43.0,509.0,763.0,-1635.0,-89.0,109.0,18.0,1344.0,584.0,-1687.0,-82.0,260.0,73.0,737.0,-328.0,-564.0,18.0,299.0,91.0,-512.0,-761.0,1469.0,86.0,141.0,42.0,-1560.0,-846.0,2409.0,62.0,-81.0,-13.0,-1480.0,-247.0,2245.0,17.0,-231.0,-39.0,-612.0,-400.0,1417.0,2.0,-225.0,-53.0,105.0,-159.0,179.0,16.0,-151.0,-24.0,411.0,-5.0,-578.0,7.0,-34.0,-18.0,465.0,206.0,-908.0,-6.0,20.0,4.0,330.0,260.0,-758.0,-22.0,49.0,4.0,110.0,206.0,-504.0,-17.0,45.0,13.0,191.0,200.0,-363.0,-11.0,26.0,7.0,-6.0,45.0,-154.0,-4.0,9.0,6.0,35.0,16.0,-78.0UP,19.0,-90.0,-44.0,395.0,462.0,-664.0,-50.0,-62.0,-39.0,757.0,598.0,-1738.0,-72.0,135.0,16.0,1239.0,391.0,-1763.0,-92.0,235.0,48.0,442.0,-468.0,-535.0,33.0,325.0,95.0,-1057.0,-828.0,1486.0,64.0,134.0,54.0,-1189.0,-615.0,2532.0,79.0,-42.0,12.0,-1246.0,-39.0,2473.0,7.0,-247.0,-51.0,-646.0,-85.0,1750.0,-6.0,-245.0,-69.0,-402.0,-299.0,375.0,4.0,-181.0,-25.0,209.0,-100.0,-653.0,15.0,-58.0,-11.0,556.0,156.0,-1223.0,8.0,30.0,18.0,498.0,336.0,-1072.0,-6.0,56.0,4.0,198.0,144.0,-636.0,-16.0,49.0,2.0,407.0,139.0,-401.0,-7.0,33.0,3.0,32.0,82.0,-171.0,-4.0,23.0,6.0,54.0,51.0,-60.0UP,15.0,-85.0,-44.0,230.0,714.0,-1088.0,-36.0,-12.0,-17.0,978.0,658.0,-1715.0,-50.0,139.0,43.0,913.0,223.0,-1296.0,-48.0,254.0,78.0,713.0,-845.0,142.0,25.0,215.0,64.0,-923.0,-785.0,1517.0,49.0,113.0,32.0,-1128.0,-432.0,2067.0,56.0,-71.0,-4.0,-1284.0,50.0,2095.0,7.0,-166.0,-39.0,-913.0,-197.0,1482.0,5.0,-205.0,-38.0,-151.0,-246.0,548.0,-15.0,-172.0,-40.0,92.0,-238.0,-470.0,5.0,-65.0,-16.0,546.0,106.0,-947.0,-8.0,7.0,-4.0,513.0,278.0,-968.0,-4.0,53.0,10.0,328.0,331.0,-615.0,-14.0,37.0,18.0,331.0,171.0,-423.0,-14.0,30.0,10.0,-92.0,21.0,-234.0,-9.0,23.0,7.0,-68.0,-13.0,-107.0UP,-30.0,-55.0,-26.0,409.0,387.0,-1408.0,-59.0,84.0,1.0,619.0,259.0,-1569.0,-55.0,166.0,44.0,151.0,-16.0,-809.0,36.0,293.0,63.0,375.0,-456.0,444.0,66.0,165.0,45.0,-855.0,-496.0,1889.0,88.0,34.0,24.0,-792.0,-223.0,2317.0,25.0,-165.0,-21.0,-1316.0,-96.0,1838.0,7.0,-171.0,-34.0,-71.0,-100.0,600.0,-8.0,-124.0,-16.0,73.0,-116.0,-6.0,-20.0,-78.0,-14.0,191.0,-125.0,-271.0,-10.0,-26.0,-10.0,115.0,35.0,-377.0,-15.0,-9.0,-28.0,149.0,44.0,-510.0,-9.0,-4.0,-7.0,251.0,186.0,-431.0,-19.0,3.0,6.0,270.0,189.0,-372.0,-17.0,12.0,8.0,67.0,109.0,-308.0,-13.0,18.0,8.0,39.0,69.0,-242.0UP,-2.0,-85.0,-35.0,240.0,560.0,-1218.0,-41.0,24.0,-22.0,900.0,517.0,-1780.0,-52.0,164.0,35.0,801.0,137.0,-1037.0,-8.0,292.0,69.0,448.0,-642.0,350.0,31.0,228.0,58.0,-1129.0,-782.0,1923.0,65.0,58.0,21.0,-1031.0,-427.0,2269.0,26.0,-144.0,-25.0,-1181.0,-100.0,2100.0,15.0,-220.0,-42.0,-192.0,-142.0,1048.0,-1.0,-174.0,-35.0,165.0,-118.0,201.0,-1.0,-110.0,-30.0,340.0,-78.0,-550.0,-8.0,-42.0,-18.0,215.0,190.0,-941.0,-18.0,0.0,-6.0,156.0,282.0,-1007.0,-17.0,38.0,11.0,163.0,253.0,-703.0,-8.0,56.0,18.0,356.0,149.0,-340.0,-3.0,40.0,8.0,-10.0,-4.0,-58.0,3.0,11.0,3.0,51.0,29.0,13.0UP,-6.0,-87.0,-46.0,188.0,480.0,-1005.0,-64.0,-27.0,-32.0,776.0,754.0,-1973.0,-91.0,159.0,30.0,1276.0,334.0,-1734.0,0.0,340.0,102.0,296.0,-564.0,-227.0,52.0,246.0,85.0,-870.0,-954.0,2038.0,96.0,73.0,25.0,-1435.0,-565.0,2676.0,24.0,-160.0,-45.0,-864.0,-109.0,2470.0,20.0,-209.0,-45.0,-327.0,-159.0,1255.0,-6.0,-190.0,-42.0,-72.0,-151.0,194.0,-9.0,-156.0,-23.0,-16.0,0.0,-528.0,-6.0,-42.0,-19.0,446.0,192.0,-1025.0,-2.0,9.0,6.0,139.0,218.0,-925.0,-3.0,34.0,15.0,433.0,182.0,-672.0,-15.0,46.0,13.0,101.0,128.0,-394.0,-7.0,36.0,6.0,317.0,60.0,-149.0,-10.0,30.0,-1.0,31.0,14.0,-52.0UP,0.0,-86.0,-48.0,127.0,390.0,-883.0,-24.0,-60.0,-31.0,667.0,737.0,-1777.0,-41.0,121.0,5.0,1079.0,344.0,-1793.0,-30.0,241.0,54.0,724.0,-302.0,-306.0,18.0,275.0,77.0,-576.0,-838.0,1485.0,44.0,130.0,60.0,-925.0,-633.0,2263.0,40.0,-37.0,15.0,-1172.0,-255.0,2178.0,12.0,-151.0,-44.0,-621.0,-340.0,1454.0,7.0,-187.0,-51.0,-213.0,-330.0,767.0,3.0,-199.0,-43.0,45.0,-165.0,20.0,9.0,-130.0,-34.0,216.0,214.0,-804.0,7.0,-29.0,-12.0,301.0,465.0,-1194.0,-7.0,60.0,10.0,465.0,369.0,-1062.0,-14.0,85.0,30.0,382.0,207.0,-449.0,-14.0,58.0,18.0,56.0,-5.0,-90.0,-3.0,27.0,2.0,-176.0,-59.0,61.0UP,-21.0,-84.0,-38.0,618.0,601.0,-1421.0,-71.0,56.0,-10.0,875.0,380.0,-1918.0,-79.0,190.0,44.0,677.0,-21.0,-1251.0,12.0,315.0,89.0,-282.0,-651.0,496.0,71.0,195.0,72.0,-973.0,-571.0,1844.0,90.0,32.0,39.0,-1024.0,-315.0,2194.0,20.0,-140.0,-28.0,-747.0,-108.0,1865.0,7.0,-167.0,-45.0,-444.0,-219.0,1097.0,-15.0,-160.0,-45.0,-156.0,-245.0,477.0,-2.0,-146.0,-29.0,123.0,-188.0,-155.0,-6.0,-80.0,-27.0,290.0,25.0,-615.0,3.0,-26.0,-17.0,185.0,233.0,-910.0,1.0,17.0,4.0,355.0,370.0,-834.0,-10.0,58.0,23.0,459.0,340.0,-600.0,-16.0,47.0,24.0,457.0,57.0,-244.0,-16.0,50.0,13.0,209.0,-23.0,-14.0UP,-24.0,-81.0,-61.0,562.0,549.0,-1384.0,-84.0,43.0,-5.0,905.0,650.0,-1864.0,-100.0,248.0,40.0,828.0,-185.0,-1101.0,-4.0,266.0,120.0,-686.0,-613.0,816.0,74.0,176.0,71.0,-973.0,-834.0,1952.0,94.0,-28.0,30.0,-985.0,-255.0,2210.0,37.0,-116.0,-51.0,-454.0,-390.0,1816.0,-2.0,-208.0,-75.0,-150.0,-439.0,1212.0,-13.0,-214.0,-71.0,212.0,-68.0,105.0,-11.0,-123.0,-35.0,373.0,259.0,-676.0,4.0,-4.0,2.0,126.0,451.0,-1116.0,-3.0,40.0,25.0,81.0,260.0,-949.0,-6.0,42.0,23.0,269.0,161.0,-682.0,-9.0,47.0,12.0,192.0,130.0,-336.0,-3.0,49.0,6.0,27.0,68.0,-50.0,0.0,18.0,8.0,-3.0,35.0,83.0UP,-46.0,-74.0,-7.0,1739.0,-139.0,-1298.0,-85.0,61.0,-2.0,1670.0,-971.0,-1601.0,-71.0,142.0,-25.0,-687.0,-1042.0,-1246.0,28.0,283.0,-34.0,-1622.0,-769.0,208.0,81.0,192.0,-42.0,-1937.0,679.0,1092.0,75.0,106.0,6.0,-783.0,1353.0,1723.0,54.0,-76.0,68.0,-885.0,1678.0,1950.0,23.0,-167.0,76.0,-864.0,670.0,1578.0,-12.0,-192.0,40.0,-924.0,-279.0,675.0,-23.0,-191.0,-3.0,-348.0,-722.0,-82.0,-11.0,-52.0,-30.0,738.0,-332.0,-713.0,2.0,-29.0,-36.0,-80.0,-170.0,-691.0,0.0,49.0,-12.0,834.0,-108.0,-780.0,-10.0,-33.0,-13.0,147.0,-142.0,-429.0,-8.0,61.0,-7.0,1155.0,104.0,-428.0,-15.0,9.0,-9.0,133.0,60.0,-158.0UP,-61.0,-79.0,-12.0,2560.0,96.0,-1073.0,-111.0,107.0,-51.0,2926.0,-1533.0,-1517.0,-33.0,285.0,-19.0,-1381.0,-1786.0,-1247.0,57.0,250.0,-12.0,-2359.0,-928.0,271.0,137.0,187.0,32.0,-2890.0,1302.0,1560.0,66.0,-92.0,43.0,-71.0,1838.0,2128.0,12.0,-88.0,28.0,-879.0,1321.0,1949.0,-26.0,-244.0,88.0,403.0,574.0,851.0,-8.0,-186.0,92.0,286.0,-14.0,44.0,-3.0,-81.0,63.0,394.0,-352.0,-724.0,-16.0,-36.0,4.0,-316.0,-707.0,-888.0,-15.0,65.0,-38.0,-366.0,-497.0,-809.0,-7.0,-11.0,-22.0,336.0,-252.0,-401.0,3.0,44.0,-39.0,135.0,7.0,-254.0,-5.0,16.0,-34.0,348.0,-12.0,-156.0,0.0,13.0,-12.0,177.0,144.0,-59.0UP,-37.0,-81.0,9.0,340.0,-241.0,-1509.0,-69.0,101.0,-44.0,131.0,-821.0,-1533.0,-57.0,270.0,-66.0,-39.0,-216.0,-242.0,39.0,274.0,-31.0,-365.0,284.0,1744.0,84.0,65.0,15.0,-891.0,667.0,2467.0,53.0,-201.0,29.0,-1026.0,63.0,1816.0,19.0,-230.0,2.0,-258.0,-146.0,660.0,-14.0,-162.0,-21.0,418.0,-131.0,-346.0,2.0,-29.0,-7.0,752.0,47.0,-784.0,-13.0,-11.0,10.0,410.0,179.0,-795.0,-11.0,36.0,14.0,368.0,49.0,-649.0,-4.0,39.0,16.0,122.0,50.0,-356.0,-16.0,54.0,-8.0,-45.0,-104.0,-147.0,-3.0,19.0,0.0,-111.0,14.0,14.0,-3.0,4.0,-3.0,-74.0,-21.0,45.0,6.0,-8.0,0.0,-133.0,9.0,15.0UP,-35.0,-46.0,-9.0,547.0,507.0,-1887.0,-134.0,304.0,-11.0,1253.0,-579.0,-1003.0,-43.0,303.0,76.0,-204.0,-134.0,2243.0,-42.0,-38.0,-30.0,-2352.0,-726.0,3404.0,150.0,-340.0,-34.0,-1380.0,189.0,1054.0,80.0,-270.0,-36.0,94.0,-97.0,-1342.0,74.0,72.0,30.0,2099.0,226.0,-1561.0,-40.0,93.0,43.0,208.0,182.0,-236.0,-36.0,56.0,13.0,28.0,19.0,-46.0,-1.0,15.0,-1.0,-307.0,-4.0,16.0,1.0,-10.0,-1.0,-13.0,15.0,-36.0,6.0,-4.0,1.0,-4.0,23.0,-27.0,1.0,-2.0,2.0,65.0,-5.0,-18.0,0.0,3.0,0.0,6.0,-16.0,4.0,-2.0,3.0,-3.0,21.0,-20.0,10.0,1.0,1.0,-1.0,-31.0,0.0,-6.0UP,-19.0,-84.0,-67.0,-288.0,380.0,-798.0,-24.0,-76.0,-63.0,754.0,854.0,-1700.0,-65.0,140.0,-9.0,1793.0,545.0,-1854.0,-63.0,232.0,73.0,1923.0,-643.0,-208.0,-31.0,340.0,81.0,-1027.0,-1071.0,1946.0,33.0,89.0,22.0,-1584.0,-802.0,2893.0,59.0,-87.0,-33.0,-2797.0,-52.0,2313.0,47.0,-336.0,-40.0,-330.0,-354.0,1265.0,11.0,-235.0,-68.0,-56.0,-277.0,-207.0,32.0,-141.0,-23.0,868.0,114.0,-917.0,15.0,29.0,-10.0,531.0,457.0,-1424.0,7.0,62.0,28.0,623.0,383.0,-996.0,-14.0,79.0,27.0,296.0,238.0,-501.0,-13.0,57.0,15.0,396.0,76.0,-237.0,-10.0,40.0,13.0,-131.0,80.0,62.0,-1.0,8.0,4.0,-229.0,-23.0,54.0UP,-20.0,-89.0,-56.0,536.0,414.0,-1401.0,-62.0,14.0,3.0,932.0,640.0,-1819.0,-119.0,247.0,17.0,848.0,-201.0,-1212.0,2.0,273.0,114.0,-540.0,-423.0,1340.0,64.0,153.0,48.0,-1254.0,-821.0,2545.0,82.0,-116.0,13.0,-1532.0,-255.0,2296.0,28.0,-215.0,-72.0,-345.0,-294.0,1123.0,-4.0,-203.0,-56.0,19.0,-50.0,-168.0,-4.0,-101.0,-27.0,384.0,34.0,-700.0,-6.0,-5.0,4.0,241.0,272.0,-848.0,-6.0,26.0,6.0,482.0,144.0,-592.0,-10.0,43.0,15.0,329.0,224.0,-434.0,-11.0,30.0,3.0,128.0,46.0,-276.0,-5.0,23.0,6.0,-29.0,73.0,-122.0,-1.0,14.0,4.0,43.0,-14.0,-76.0,2.0,4.0,7.0,38.0,21.0,16.0UP,-38.0,-90.0,-63.0,643.0,648.0,-1700.0,-88.0,32.0,-12.0,928.0,640.0,-2181.0,-131.0,204.0,43.0,1016.0,-2.0,-1603.0,3.0,341.0,87.0,12.0,-821.0,1065.0,70.0,206.0,60.0,-1286.0,-650.0,2895.0,91.0,-7.0,11.0,-1403.0,-30.0,3006.0,22.0,-237.0,-23.0,-1808.0,-28.0,2146.0,2.0,-267.0,-71.0,-598.0,-533.0,315.0,19.0,-190.0,-41.0,454.0,-315.0,-801.0,23.0,-84.0,-11.0,936.0,77.0,-1152.0,14.0,23.0,22.0,955.0,485.0,-1101.0,-10.0,49.0,15.0,-70.0,229.0,-574.0,-14.0,57.0,9.0,354.0,166.0,-461.0,-17.0,46.0,10.0,91.0,55.0,-164.0,-12.0,38.0,10.0,115.0,34.0,-41.0,2.0,14.0,9.0,-60.0,14.0,69.0UP,-37.0,297.0,-105.0,-1023.0,-463.0,-71.0,62.0,266.0,-52.0,-905.0,870.0,1466.0,60.0,101.0,12.0,-736.0,1083.0,2261.0,45.0,-122.0,46.0,-1564.0,1304.0,2310.0,-30.0,-267.0,83.0,-639.0,446.0,1404.0,-28.0,-226.0,64.0,-281.0,-367.0,-99.0,-14.0,-175.0,53.0,589.0,-897.0,-1246.0,48.0,11.0,-3.0,1002.0,-544.0,-1574.0,15.0,76.0,-24.0,200.0,-245.0,-874.0,0.0,103.0,-41.0,221.0,-62.0,-312.0,-11.0,52.0,-43.0,-235.0,-46.0,8.0,7.0,18.0,-19.0,-62.0,199.0,191.0,10.0,-22.0,3.0,58.0,125.0,179.0,2.0,-27.0,11.0,175.0,41.0,68.0,-6.0,-17.0,6.0,74.0,-47.0,-37.0,-4.0,5.0,-5.0,195.0,-25.0,-71.0UP,-35.0,-78.0,80.0,1411.0,26.0,-877.0,-100.0,-9.0,26.0,552.0,-1236.0,-1605.0,-93.0,190.0,-93.0,66.0,-1660.0,-1355.0,1.0,240.0,-152.0,-903.0,-694.0,-242.0,68.0,282.0,-136.0,-821.0,1477.0,1537.0,86.0,75.0,21.0,-792.0,2366.0,2295.0,39.0,-59.0,73.0,-1367.0,1923.0,2498.0,-20.0,-297.0,180.0,-977.0,628.0,1609.0,-34.0,-209.0,132.0,9.0,-421.0,-159.0,-35.0,-137.0,93.0,1027.0,-1385.0,-1245.0,28.0,76.0,-14.0,711.0,-970.0,-1697.0,26.0,70.0,-50.0,92.0,-666.0,-820.0,25.0,80.0,-55.0,-559.0,72.0,-168.0,7.0,-2.0,-30.0,245.0,-40.0,121.0,-7.0,-19.0,-2.0,271.0,246.0,158.0,-7.0,-14.0,14.0,164.0,-39.0,21.0UP,-58.0,18.0,8.0,1227.0,-1457.0,-292.0,10.0,78.0,-120.0,-540.0,-994.0,-340.0,59.0,114.0,-191.0,-918.0,-475.0,-62.0,92.0,93.0,-136.0,-1315.0,1341.0,293.0,24.0,41.0,-28.0,-312.0,1367.0,663.0,-10.0,-25.0,65.0,-166.0,1653.0,764.0,-57.0,-83.0,160.0,502.0,1151.0,341.0,-78.0,-14.0,167.0,332.0,-179.0,-61.0,-40.0,18.0,64.0,-277.0,-998.0,-322.0,14.0,14.0,-16.0,-476.0,-1106.0,-305.0,42.0,-14.0,-64.0,27.0,-286.0,-115.0,15.0,-11.0,-40.0,208.0,-76.0,-49.0,-4.0,-2.0,-16.0,106.0,46.0,-9.0,-12.0,-5.0,-2.0,4.0,-36.0,-49.0,-6.0,-6.0,5.0,187.0,-59.0,-69.0,2.0,15.0,-1.0,1.0,-35.0,-22.0UP,5.0,-12.0,-33.0,-1107.0,-1311.0,-483.0,7.0,-73.0,-110.0,-145.0,-865.0,-598.0,12.0,84.0,-198.0,-407.0,-108.0,-357.0,58.0,73.0,-96.0,1041.0,1120.0,448.0,60.0,139.0,-52.0,114.0,1296.0,1177.0,38.0,-40.0,13.0,-69.0,1303.0,1604.0,-36.0,-129.0,36.0,-170.0,955.0,1269.0,-62.0,-198.0,71.0,80.0,297.0,469.0,-39.0,-150.0,58.0,-133.0,-440.0,-535.0,11.0,-64.0,41.0,405.0,-454.0,-861.0,20.0,17.0,-2.0,176.0,-453.0,-718.0,13.0,44.0,-15.0,450.0,-83.0,-388.0,-11.0,52.0,-29.0,-68.0,-210.0,-334.0,-9.0,25.0,-22.0,-74.0,-22.0,-212.0,-6.0,16.0,-9.0,150.0,43.0,-82.0,-7.0,1.0,-3.0,46.0,88.0,16.0UP,-41.0,-70.0,-47.0,912.0,52.0,-1605.0,-55.0,50.0,-42.0,1315.0,-228.0,-1902.0,-64.0,246.0,-22.0,2098.0,-746.0,-1140.0,36.0,324.0,-8.0,-630.0,-328.0,1083.0,52.0,139.0,-7.0,-1204.0,520.0,2727.0,71.0,-52.0,26.0,-2240.0,994.0,3026.0,4.0,-279.0,34.0,-1501.0,342.0,2178.0,-11.0,-248.0,-9.0,-297.0,-760.0,261.0,-12.0,-192.0,-36.0,762.0,-647.0,-1320.0,4.0,-12.0,-14.0,1503.0,-164.0,-1566.0,4.0,62.0,20.0,1086.0,293.0,-1183.0,-6.0,93.0,28.0,609.0,256.0,-215.0,-8.0,49.0,16.0,-14.0,102.0,5.0,-5.0,31.0,15.0,-296.0,-29.0,62.0,-6.0,-8.0,8.0,-495.0,-86.0,11.0,-4.0,-12.0,5.0,-187.0,-44.0,-59.0UP,-95.0,-89.0,-4.0,1917.0,-243.0,-576.0,-60.0,75.0,-54.0,1768.0,-1436.0,-961.0,64.0,292.0,-122.0,-435.0,-1271.0,-1121.0,126.0,171.0,-31.0,-1781.0,-380.0,19.0,79.0,139.0,-43.0,-2478.0,1578.0,954.0,-26.0,-110.0,54.0,-642.0,2065.0,1724.0,-21.0,-51.0,99.0,-130.0,1679.0,1556.0,-39.0,-138.0,148.0,605.0,513.0,458.0,-56.0,-94.0,85.0,-392.0,-1219.0,-635.0,-6.0,-24.0,-6.0,-396.0,-1073.0,-885.0,10.0,-14.0,-27.0,-193.0,-950.0,-646.0,26.0,24.0,-42.0,800.0,245.0,-109.0,0.0,13.0,-19.0,503.0,1.0,-147.0,0.0,25.0,-15.0,99.0,98.0,33.0,-6.0,2.0,-7.0,-8.0,-45.0,-12.0,-4.0,3.0,-5.0,7.0,-18.0,6.0UP,-9.0,-135.0,-124.0,1219.0,326.0,-615.0,-19.0,-12.0,-56.0,2509.0,939.0,-980.0,-47.0,80.0,-2.0,2709.0,659.0,-1272.0,-10.0,178.0,79.0,1546.0,143.0,-441.0,39.0,238.0,82.0,295.0,-765.0,522.0,65.0,144.0,51.0,-1920.0,-707.0,1636.0,47.0,8.0,5.0,-2075.0,-432.0,2191.0,-18.0,-212.0,-11.0,-1295.0,-20.0,1775.0,-22.0,-190.0,-30.0,465.0,98.0,655.0,-16.0,-161.0,-7.0,603.0,53.0,-438.0,-21.0,-44.0,13.0,1105.0,22.0,-955.0,-5.0,10.0,29.0,-436.0,-10.0,-884.0,-12.0,48.0,7.0,-150.0,-77.0,-639.0,10.0,36.0,-7.0,-512.0,7.0,-378.0,-10.0,32.0,-25.0,-163.0,-90.0,-299.0,3.0,4.0,-12.0,15.0,86.0,-56.0UP,-32.0,1.0,113.0,2095.0,4.0,280.0,-17.0,277.0,67.0,-1067.0,-1080.0,60.0,-34.0,91.0,-80.0,-2424.0,-1523.0,29.0,47.0,76.0,-148.0,-3172.0,-1048.0,-415.0,59.0,-145.0,-173.0,-584.0,329.0,-464.0,98.0,28.0,-43.0,773.0,1453.0,-207.0,35.0,29.0,-1.0,529.0,1841.0,110.0,-29.0,-41.0,96.0,842.0,1801.0,553.0,-67.0,16.0,97.0,302.0,932.0,254.0,-89.0,29.0,139.0,-128.0,-362.0,15.0,-42.0,17.0,73.0,-862.0,-944.0,-149.0,-14.0,-29.0,30.0,-516.0,-1107.0,-219.0,30.0,-52.0,-47.0,-36.0,-565.0,-83.0,27.0,-5.0,-59.0,5.0,-298.0,-141.0,20.0,-17.0,-35.0,-115.0,26.0,46.0,0.0,-24.0,-12.0,174.0,130.0,86.0UP,69.0,-22.0,-162.0,-1870.0,-376.0,-900.0,76.0,38.0,-141.0,1353.0,547.0,-359.0,81.0,53.0,-50.0,2020.0,1490.0,724.0,25.0,87.0,13.0,1394.0,1126.0,1501.0,12.0,-40.0,24.0,-865.0,1024.0,1470.0,-33.0,-115.0,70.0,248.0,685.0,1082.0,-59.0,-127.0,71.0,163.0,296.0,300.0,-46.0,-74.0,77.0,-170.0,-141.0,-287.0,-27.0,-51.0,53.0,103.0,-502.0,-625.0,-12.0,33.0,7.0,125.0,-488.0,-554.0,-6.0,24.0,-4.0,77.0,-275.0,-383.0,-5.0,53.0,-25.0,-221.0,-254.0,-353.0,3.0,17.0,-7.0,-385.0,-176.0,-170.0,-3.0,0.0,-14.0,-98.0,-224.0,-103.0,-4.0,8.0,-17.0,-35.0,-37.0,-26.0,3.0,1.0,-8.0,53.0,-2.0,11.0UP,-59.0,-50.0,61.0,507.0,-740.0,-669.0,-26.0,17.0,-18.0,87.0,-1397.0,-686.0,25.0,96.0,-170.0,-385.0,-1479.0,-671.0,86.0,147.0,-153.0,-203.0,-204.0,57.0,73.0,136.0,-113.0,-345.0,954.0,551.0,48.0,97.0,-36.0,-107.0,1682.0,1380.0,17.0,-48.0,21.0,-608.0,1940.0,1468.0,-29.0,-175.0,102.0,587.0,1725.0,1086.0,-72.0,-111.0,129.0,97.0,483.0,-22.0,-48.0,-69.0,82.0,-827.0,-692.0,-608.0,-35.0,4.0,23.0,-915.0,-1416.0,-744.0,30.0,-93.0,-25.0,-232.0,-781.0,-432.0,24.0,-7.0,-21.0,994.0,-431.0,-269.0,12.0,-17.0,-31.0,495.0,-102.0,-241.0,8.0,61.0,-21.0,241.0,-143.0,-90.0,2.0,-7.0,-5.0,153.0,113.0,7.0UP,-18.0,-94.0,31.0,37.0,-121.0,-716.0,-18.0,-39.0,-8.0,295.0,-730.0,-1243.0,-41.0,98.0,-87.0,226.0,-763.0,-1305.0,4.0,225.0,-86.0,449.0,-514.0,-511.0,39.0,251.0,-65.0,-54.0,375.0,1030.0,46.0,148.0,-34.0,-860.0,942.0,2345.0,37.0,-35.0,4.0,-842.0,1052.0,2472.0,-9.0,-196.0,42.0,-585.0,738.0,1667.0,-31.0,-237.0,51.0,-58.0,15.0,323.0,-20.0,-164.0,23.0,-148.0,-381.0,-329.0,-14.0,-57.0,-17.0,174.0,-414.0,-898.0,13.0,5.0,-18.0,721.0,-193.0,-1036.0,-4.0,24.0,-11.0,440.0,17.0,-874.0,0.0,28.0,11.0,243.0,34.0,-557.0,-3.0,50.0,0.0,-94.0,-24.0,-198.0,-2.0,45.0,-6.0,41.0,-65.0,-42.0UP,-29.0,-68.0,-39.0,78.0,423.0,-1454.0,-33.0,56.0,-6.0,568.0,334.0,-1731.0,-23.0,185.0,24.0,1151.0,-88.0,-1088.0,15.0,287.0,39.0,380.0,-627.0,717.0,35.0,192.0,42.0,-730.0,-529.0,2196.0,40.0,28.0,3.0,-1317.0,-80.0,2831.0,9.0,-150.0,-9.0,-1396.0,-15.0,2358.0,-11.0,-226.0,-53.0,-95.0,-415.0,1101.0,-12.0,-212.0,-30.0,-101.0,-370.0,-334.0,4.0,-132.0,-5.0,1183.0,138.0,-1101.0,1.0,13.0,0.0,61.0,378.0,-1539.0,1.0,55.0,13.0,-165.0,250.0,-997.0,-3.0,77.0,-1.0,-168.0,94.0,-509.0,-3.0,14.0,7.0,132.0,85.0,5.0,-4.0,22.0,-11.0,305.0,-32.0,-13.0,-3.0,0.0,0.0,90.0,-33.0,41.0UP,9.0,-56.0,-91.0,-929.0,550.0,-589.0,-12.0,-45.0,-60.0,838.0,1223.0,-1024.0,-20.0,101.0,24.0,1519.0,1203.0,-1135.0,-32.0,129.0,105.0,2347.0,262.0,-588.0,-1.0,221.0,115.0,1142.0,-1048.0,390.0,31.0,183.0,64.0,-1137.0,-1251.0,1193.0,32.0,67.0,47.0,-1709.0,-872.0,2033.0,26.0,-52.0,-24.0,-2336.0,-320.0,1948.0,-23.0,-252.0,-5.0,-1027.0,-477.0,1637.0,-7.0,-162.0,-73.0,-187.0,-502.0,307.0,-8.0,-196.0,-46.0,175.0,-188.0,-760.0,34.0,3.0,-41.0,867.0,385.0,-1426.0,19.0,-27.0,9.0,553.0,499.0,-1137.0,11.0,73.0,31.0,418.0,316.0,-583.0,-18.0,37.0,15.0,274.0,130.0,-251.0,-17.0,54.0,13.0,-98.0,79.0,-58.0UP,52.0,61.0,-201.0,-181.0,361.0,31.0,93.0,27.0,-143.0,-496.0,903.0,352.0,71.0,-46.0,-38.0,337.0,1336.0,477.0,-16.0,-29.0,79.0,309.0,1095.0,306.0,-46.0,-25.0,143.0,250.0,662.0,139.0,-54.0,-40.0,143.0,126.0,11.0,-35.0,-7.0,-28.0,89.0,25.0,-297.0,-109.0,1.0,-25.0,27.0,76.0,-389.0,-187.0,-5.0,10.0,-14.0,-241.0,-379.0,-195.0,-10.0,15.0,-26.0,-114.0,-315.0,-128.0,0.0,28.0,-27.0,-77.0,-226.0,-41.0,3.0,4.0,-20.0,30.0,-135.0,-13.0,1.0,5.0,-19.0,-18.0,-64.0,-30.0,-3.0,2.0,-11.0,15.0,-21.0,-8.0,-1.0,3.0,-3.0,-88.0,14.0,18.0,1.0,4.0,1.0,11.0,5.0,28.0UP,-54.0,-44.0,93.0,261.0,-1123.0,-473.0,-87.0,79.0,-64.0,-110.0,-1203.0,-335.0,-44.0,124.0,-216.0,347.0,-682.0,-115.0,83.0,99.0,-275.0,-580.0,600.0,400.0,167.0,-30.0,-165.0,182.0,1303.0,390.0,88.0,-43.0,11.0,33.0,1545.0,443.0,1.0,-36.0,129.0,553.0,1114.0,282.0,-51.0,-7.0,145.0,-190.0,478.0,174.0,-30.0,-40.0,119.0,476.0,135.0,-34.0,4.0,0.0,79.0,-30.0,-231.0,-226.0,-21.0,-2.0,52.0,-44.0,-251.0,-237.0,-14.0,54.0,28.0,-506.0,-300.0,-38.0,-13.0,-11.0,-2.0,-184.0,-262.0,36.0,6.0,-10.0,-18.0,-42.0,-271.0,23.0,-1.0,-27.0,-26.0,-111.0,-214.0,-76.0,-10.0,3.0,-23.0,5.0,-154.0,-34.0UP,-22.0,-71.0,76.0,185.0,-735.0,-299.0,-34.0,19.0,-3.0,108.0,-921.0,-324.0,-40.0,51.0,-156.0,525.0,-677.0,-284.0,42.0,107.0,-236.0,-348.0,82.0,213.0,83.0,12.0,-189.0,-66.0,946.0,319.0,68.0,-24.0,-36.0,-17.0,1553.0,462.0,-9.0,-30.0,131.0,207.0,1243.0,261.0,-54.0,-45.0,173.0,189.0,461.0,118.0,-26.0,-6.0,123.0,184.0,-196.0,-52.0,11.0,-26.0,49.0,215.0,-303.0,-74.0,2.0,-5.0,0.0,-188.0,-211.0,-157.0,-20.0,14.0,5.0,-312.0,-229.0,-131.0,-22.0,-2.0,-2.0,-3.0,-279.0,-99.0,-4.0,18.0,-4.0,74.0,-323.0,-4.0,4.0,-21.0,-27.0,145.0,-214.0,-82.0,-1.0,21.0,-22.0,-227.0,-58.0,-51.0UP,-8.0,-45.0,96.0,49.0,-567.0,-100.0,-24.0,1.0,12.0,59.0,-799.0,-165.0,-13.0,25.0,-120.0,305.0,-604.0,-175.0,32.0,75.0,-166.0,-271.0,-92.0,65.0,60.0,3.0,-125.0,-125.0,377.0,117.0,66.0,4.0,-73.0,-112.0,813.0,138.0,29.0,-29.0,-11.0,199.0,1128.0,144.0,-8.0,7.0,70.0,-50.0,931.0,153.0,-38.0,-37.0,105.0,90.0,437.0,62.0,-36.0,-10.0,101.0,93.0,-82.0,-50.0,-17.0,-21.0,55.0,232.0,-245.0,-63.0,-9.0,6.0,18.0,-25.0,-276.0,-51.0,-5.0,10.0,-5.0,-94.0,-212.0,-33.0,-5.0,16.0,-14.0,-49.0,-172.0,-46.0,-6.0,5.0,-8.0,-86.0,-129.0,-33.0,-8.0,0.0,-1.0,-37.0,-145.0,-23.0UP,22.0,36.0,-90.0,14.0,5.0,87.0,38.0,5.0,-83.0,-64.0,266.0,146.0,39.0,-3.0,-49.0,27.0,563.0,163.0,24.0,-12.0,-14.0,60.0,721.0,123.0,-14.0,-1.0,20.0,136.0,687.0,78.0,-33.0,-2.0,46.0,76.0,532.0,96.0,-27.0,2.0,72.0,129.0,291.0,89.0,-10.0,-27.0,75.0,222.0,15.0,-19.0,-15.0,-5.0,60.0,-58.0,-235.0,-132.0,-21.0,1.0,26.0,-200.0,-355.0,-121.0,-14.0,26.0,1.0,-251.0,-347.0,-26.0,0.0,4.0,-15.0,-7.0,-286.0,37.0,-1.0,-8.0,-22.0,80.0,-223.0,-20.0,-2.0,-5.0,-25.0,-49.0,-117.0,-21.0,-1.0,-1.0,-17.0,-40.0,-44.0,-23.0,0.0,4.0,-12.0,-53.0,18.0,-7.0UP,20.0,23.0,-121.0,-92.0,2.0,47.0,60.0,-2.0,-106.0,154.0,505.0,171.0,54.0,-4.0,-64.0,-46.0,801.0,143.0,23.0,-10.0,11.0,320.0,991.0,137.0,-22.0,7.0,66.0,-14.0,698.0,141.0,-27.0,-18.0,88.0,76.0,344.0,93.0,-25.0,-22.0,83.0,-57.0,-18.0,16.0,-22.0,-15.0,45.0,186.0,-211.0,-72.0,-18.0,11.0,25.0,-111.0,-174.0,-45.0,-6.0,14.0,10.0,0.0,-168.0,-14.0,-4.0,-9.0,-1.0,23.0,-177.0,-58.0,-6.0,-6.0,-5.0,-31.0,-200.0,-77.0,-10.0,-2.0,-9.0,-43.0,-187.0,-67.0,-7.0,15.0,-8.0,-181.0,-140.0,-6.0,0.0,8.0,-11.0,55.0,-112.0,10.0,0.0,1.0,-15.0,-34.0,-39.0,5.0UP,16.0,31.0,-115.0,281.0,-74.0,57.0,44.0,21.0,-119.0,-171.0,270.0,195.0,62.0,-6.0,-73.0,-52.0,677.0,236.0,46.0,-20.0,-21.0,-24.0,862.0,84.0,7.0,-7.0,43.0,220.0,836.0,69.0,-22.0,2.0,66.0,39.0,511.0,44.0,-32.0,-12.0,69.0,74.0,127.0,36.0,-28.0,-6.0,51.0,61.0,-58.0,-10.0,-31.0,2.0,43.0,-13.0,-65.0,4.0,-10.0,2.0,34.0,-36.0,-5.0,10.0,-5.0,-2.0,19.0,-160.0,-107.0,2.0,5.0,-13.0,5.0,80.0,-193.0,-45.0,-15.0,-4.0,-4.0,-134.0,-271.0,-78.0,-15.0,2.0,-4.0,58.0,-224.0,-52.0,-13.0,3.0,-12.0,-64.0,-189.0,-51.0,1.0,16.0,-11.0,-22.0,-96.0,9.0UP,27.0,54.0,-144.0,-21.0,-80.0,83.0,64.0,4.0,-125.0,-133.0,428.0,174.0,72.0,-18.0,-75.0,-222.0,887.0,109.0,38.0,-20.0,1.0,197.0,1117.0,23.0,-14.0,21.0,61.0,-76.0,958.0,32.0,-30.0,0.0,101.0,-134.0,528.0,91.0,-38.0,-14.0,89.0,-8.0,3.0,34.0,-29.0,-20.0,60.0,104.0,-209.0,17.0,-17.0,3.0,30.0,185.0,-204.0,-10.0,2.0,-11.0,13.0,112.0,-117.0,-51.0,0.0,10.0,2.0,-34.0,-120.0,-74.0,-15.0,-8.0,-11.0,33.0,-255.0,-106.0,-20.0,21.0,1.0,-252.0,-197.0,42.0,-10.0,-6.0,0.0,84.0,-215.0,29.0,0.0,6.0,-1.0,-177.0,-108.0,38.0,1.0,5.0,-9.0,85.0,-119.0,-7.0UP,-10.0,-53.0,74.0,-233.0,-429.0,-85.0,-16.0,-12.0,31.0,-26.0,-688.0,-170.0,-23.0,9.0,-85.0,423.0,-655.0,-300.0,13.0,71.0,-121.0,319.0,-295.0,-95.0,41.0,23.0,-127.0,43.0,80.0,33.0,58.0,12.0,-91.0,-56.0,481.0,183.0,53.0,-14.0,-50.0,-76.0,814.0,216.0,24.0,0.0,8.0,-21.0,961.0,216.0,-10.0,-7.0,63.0,-193.0,696.0,177.0,-24.0,-7.0,82.0,86.0,323.0,98.0,-18.0,-15.0,73.0,127.0,14.0,45.0,-20.0,-19.0,39.0,358.0,-130.0,-66.0,-12.0,-7.0,27.0,-24.0,-107.0,-61.0,-26.0,-9.0,17.0,-16.0,-187.0,-102.0,-19.0,17.0,14.0,-313.0,-118.0,-9.0,-9.0,0.0,6.0,29.0,-119.0,-33.0UP,42.0,24.0,-126.0,78.0,58.0,35.0,54.0,10.0,-101.0,-16.0,472.0,113.0,41.0,-9.0,-41.0,30.0,765.0,154.0,13.0,-1.0,12.0,197.0,872.0,128.0,-10.0,1.0,56.0,-132.0,707.0,119.0,-27.0,-10.0,80.0,-52.0,364.0,85.0,-24.0,-23.0,66.0,111.0,-15.0,31.0,-38.0,-19.0,44.0,162.0,-172.0,-29.0,-23.0,3.0,31.0,-4.0,-131.0,-11.0,-12.0,2.0,29.0,-129.0,-129.0,-12.0,6.0,-7.0,9.0,103.0,-243.0,-66.0,-4.0,-7.0,-8.0,6.0,-264.0,-126.0,-11.0,13.0,-18.0,-51.0,-216.0,-95.0,-8.0,18.0,-12.0,-189.0,-82.0,-3.0,3.0,10.0,-9.0,-15.0,-78.0,30.0,2.0,-7.0,-14.0,33.0,-60.0,22.0UP,12.0,66.0,-154.0,337.0,-228.0,-15.0,65.0,20.0,-150.0,169.0,424.0,202.0,65.0,7.0,-88.0,-419.0,936.0,316.0,37.0,-34.0,11.0,-54.0,1184.0,178.0,-30.0,-6.0,78.0,-60.0,832.0,34.0,-43.0,-6.0,111.0,58.0,420.0,32.0,-35.0,-18.0,90.0,84.0,12.0,30.0,-15.0,-11.0,64.0,49.0,-203.0,-9.0,-3.0,3.0,35.0,68.0,-287.0,-57.0,4.0,8.0,19.0,-94.0,-319.0,-66.0,1.0,-2.0,-11.0,46.0,-303.0,-57.0,0.0,-1.0,-23.0,-52.0,-243.0,-36.0,-7.0,7.0,-25.0,-70.0,-145.0,-9.0,-5.0,8.0,-15.0,-65.0,-66.0,22.0,0.0,1.0,-12.0,19.0,-21.0,10.0,-1.0,-2.0,-7.0,6.0,8.0,18.0UP,29.0,28.0,-147.0,-44.0,-6.0,68.0,66.0,21.0,-110.0,234.0,530.0,237.0,53.0,-13.0,-58.0,-323.0,837.0,222.0,17.0,-14.0,17.0,133.0,1091.0,159.0,-30.0,0.0,78.0,-286.0,721.0,117.0,-40.0,-22.0,98.0,238.0,330.0,57.0,-33.0,-6.0,87.0,-12.0,-117.0,53.0,-12.0,-22.0,53.0,279.0,-200.0,-6.0,-5.0,7.0,31.0,-200.0,-279.0,-51.0,3.0,-11.0,6.0,18.0,-262.0,-86.0,1.0,1.0,-13.0,-83.0,-260.0,-83.0,-2.0,1.0,-20.0,88.0,-174.0,-65.0,-7.0,5.0,-15.0,-29.0,-101.0,-38.0,-8.0,6.0,-9.0,-2.0,-52.0,-25.0,-3.0,7.0,-4.0,-84.0,-19.0,1.0,2.0,2.0,-2.0,-4.0,-12.0,-3.0UP,23.0,49.0,-152.0,158.0,-40.0,-24.0,51.0,11.0,-113.0,-88.0,442.0,92.0,48.0,-9.0,-57.0,-69.0,821.0,160.0,21.0,-11.0,11.0,-1.0,953.0,124.0,-14.0,3.0,63.0,-92.0,788.0,87.0,-23.0,1.0,83.0,-148.0,386.0,70.0,-20.0,-16.0,72.0,150.0,37.0,26.0,-15.0,-8.0,45.0,84.0,-166.0,21.0,-4.0,5.0,26.0,166.0,-116.0,-16.0,-8.0,-1.0,15.0,-43.0,-138.0,-38.0,-6.0,2.0,8.0,66.0,-122.0,-73.0,-16.0,-13.0,-3.0,-127.0,-192.0,-73.0,-16.0,14.0,1.0,-158.0,-149.0,3.0,-11.0,-8.0,-2.0,8.0,-148.0,6.0,-4.0,6.0,1.0,0.0,-119.0,26.0,-1.0,-1.0,-3.0,68.0,-99.0,4.0UP,31.0,39.0,-101.0,-14.0,130.0,102.0,41.0,1.0,-75.0,-103.0,426.0,217.0,34.0,-9.0,-31.0,-84.0,696.0,205.0,23.0,-5.0,9.0,38.0,821.0,146.0,-14.0,-3.0,55.0,-186.0,624.0,128.0,-30.0,-4.0,70.0,-27.0,293.0,110.0,-26.0,-17.0,63.0,29.0,9.0,107.0,-8.0,2.0,39.0,318.0,-61.0,44.0,-2.0,-22.0,24.0,96.0,-154.0,-23.0,-18.0,-10.0,17.0,-84.0,-217.0,-73.0,-22.0,-21.0,8.0,-130.0,-208.0,-84.0,-18.0,9.0,2.0,-90.0,-144.0,-70.0,-2.0,7.0,-4.0,88.0,-100.0,-61.0,-3.0,0.0,-10.0,-8.0,-124.0,-66.0,-2.0,1.0,-10.0,0.0,-124.0,-37.0,-1.0,0.0,-13.0,18.0,-73.0,-32.0UP,26.0,24.0,-97.0,137.0,86.0,-30.0,37.0,2.0,-104.0,220.0,306.0,6.0,44.0,6.0,-72.0,296.0,633.0,134.0,41.0,-4.0,-23.0,15.0,862.0,200.0,7.0,-6.0,52.0,-139.0,804.0,158.0,-25.0,-7.0,80.0,-41.0,435.0,73.0,-40.0,-17.0,73.0,93.0,69.0,30.0,-30.0,-8.0,46.0,159.0,-65.0,66.0,-14.0,-6.0,36.0,-45.0,-50.0,69.0,-4.0,2.0,28.0,199.0,-51.0,-25.0,-2.0,-8.0,18.0,19.0,-113.0,-96.0,-6.0,0.0,14.0,-215.0,-180.0,-114.0,-17.0,-4.0,10.0,-118.0,-285.0,-73.0,-9.0,16.0,-2.0,-22.0,-248.0,-34.0,-4.0,8.0,-17.0,182.0,-197.0,-6.0,2.0,17.0,-21.0,-200.0,-77.0,25.0UP,7.0,52.0,-122.0,-123.0,-116.0,-89.0,41.0,17.0,-110.0,171.0,256.0,14.0,55.0,14.0,-83.0,7.0,509.0,163.0,46.0,-13.0,-37.0,208.0,729.0,168.0,12.0,6.0,7.0,-52.0,758.0,179.0,-14.0,-3.0,48.0,19.0,646.0,146.0,-19.0,-6.0,64.0,-42.0,374.0,130.0,-20.0,-19.0,66.0,34.0,113.0,72.0,-11.0,-3.0,51.0,124.0,21.0,23.0,-13.0,-31.0,43.0,-74.0,-141.0,1.0,-28.0,-10.0,21.0,-55.0,-239.0,-50.0,-24.0,-24.0,10.0,23.0,-243.0,-84.0,-11.0,18.0,-1.0,112.0,-169.0,-131.0,5.0,5.0,-5.0,129.0,-104.0,-113.0,3.0,15.0,-6.0,-140.0,-125.0,-56.0,-8.0,3.0,-5.0,-85.0,-105.0,-6.0UP,23.0,58.0,-132.0,57.0,-176.0,-38.0,52.0,29.0,-113.0,146.0,262.0,138.0,56.0,4.0,-68.0,-238.0,685.0,241.0,41.0,-20.0,-19.0,-69.0,915.0,183.0,7.0,3.0,22.0,-80.0,842.0,105.0,-21.0,-6.0,60.0,-158.0,579.0,76.0,-36.0,3.0,72.0,-50.0,289.0,81.0,-29.0,-11.0,75.0,-60.0,2.0,88.0,-18.0,-21.0,56.0,206.0,-166.0,-3.0,-15.0,-28.0,33.0,260.0,-248.0,-114.0,-6.0,20.0,13.0,244.0,-153.0,-98.0,-1.0,0.0,2.0,31.0,-120.0,-59.0,-3.0,27.0,1.0,-379.0,-133.0,20.0,-10.0,-17.0,-4.0,-107.0,-220.0,-7.0,-8.0,6.0,-10.0,-80.0,-174.0,-12.0,-3.0,-8.0,-12.0,106.0,-112.0,-13.0UP,46.0,28.0,-108.0,444.0,101.0,21.0,56.0,23.0,-93.0,177.0,496.0,222.0,56.0,-11.0,-46.0,-67.0,734.0,281.0,17.0,0.0,1.0,174.0,806.0,194.0,-11.0,-6.0,41.0,-116.0,650.0,176.0,-23.0,9.0,64.0,113.0,499.0,118.0,-23.0,-13.0,72.0,-83.0,240.0,149.0,-16.0,-15.0,69.0,107.0,16.0,55.0,-18.0,-23.0,48.0,21.0,-186.0,-22.0,-23.0,-13.0,33.0,-87.0,-190.0,-54.0,-12.0,0.0,14.0,-21.0,-169.0,-58.0,-5.0,-10.0,7.0,-84.0,-134.0,-39.0,1.0,9.0,2.0,19.0,-182.0,-76.0,-11.0,-9.0,-6.0,-30.0,-219.0,-91.0,-12.0,14.0,-9.0,-76.0,-174.0,-43.0,-5.0,-5.0,-12.0,37.0,-110.0,-34.0UP,-27.0,-47.0,103.0,-855.0,-455.0,-42.0,-51.0,-54.0,97.0,-114.0,-1079.0,-303.0,-80.0,45.0,-98.0,-34.0,-1306.0,-612.0,3.0,106.0,-216.0,921.0,-716.0,-542.0,69.0,105.0,-251.0,-333.0,482.0,70.0,148.0,-4.0,-130.0,23.0,1030.0,678.0,95.0,-55.0,-12.0,-167.0,1195.0,695.0,41.0,-40.0,48.0,783.0,884.0,265.0,-28.0,-2.0,88.0,149.0,710.0,3.0,-39.0,9.0,106.0,239.0,448.0,43.0,-16.0,-19.0,95.0,26.0,141.0,80.0,-15.0,-4.0,75.0,-137.0,-148.0,-16.0,-12.0,-15.0,40.0,72.0,-239.0,-81.0,-24.0,-8.0,23.0,-277.0,-281.0,-86.0,-11.0,-2.0,2.0,-18.0,-186.0,-46.0,4.0,13.0,-6.0,-118.0,-140.0,-31.0UP,-32.0,-31.0,64.0,-269.0,-919.0,-183.0,-40.0,23.0,-93.0,163.0,-1048.0,-254.0,18.0,73.0,-250.0,128.0,-401.0,-272.0,68.0,62.0,-233.0,-4.0,657.0,179.0,94.0,-12.0,-98.0,-91.0,1420.0,455.0,17.0,-43.0,87.0,404.0,1408.0,513.0,-28.0,-39.0,155.0,286.0,729.0,211.0,-47.0,-40.0,136.0,332.0,30.0,-117.0,-18.0,-14.0,92.0,-93.0,-278.0,-167.0,-3.0,6.0,22.0,-40.0,-352.0,-123.0,1.0,13.0,4.0,-219.0,-249.0,-63.0,-3.0,12.0,-13.0,-11.0,-235.0,-24.0,-2.0,-11.0,-13.0,49.0,-182.0,-55.0,-1.0,1.0,-14.0,-3.0,-162.0,-74.0,-1.0,10.0,-12.0,-94.0,-68.0,-36.0,-7.0,7.0,-2.0,-62.0,-50.0,-11.0UP,-13.0,-6.0,68.0,-272.0,-589.0,-161.0,-15.0,11.0,-13.0,-124.0,-719.0,-209.0,1.0,62.0,-110.0,-67.0,-462.0,-75.0,29.0,29.0,-143.0,98.0,-65.0,32.0,51.0,14.0,-121.0,140.0,344.0,139.0,60.0,-24.0,-71.0,-21.0,727.0,185.0,32.0,-12.0,-15.0,246.0,978.0,206.0,-10.0,-7.0,58.0,-44.0,870.0,191.0,-38.0,-19.0,103.0,29.0,424.0,107.0,-33.0,-10.0,103.0,49.0,7.0,64.0,-5.0,-25.0,62.0,99.0,-225.0,-33.0,-2.0,5.0,17.0,122.0,-239.0,-81.0,-1.0,-3.0,-7.0,-68.0,-208.0,-100.0,-9.0,10.0,-12.0,-65.0,-146.0,-67.0,-13.0,1.0,-9.0,-75.0,-111.0,-38.0,-11.0,-2.0,-4.0,-12.0,-62.0,-60.0UP,-21.0,-30.0,55.0,-277.0,-634.0,-239.0,-31.0,11.0,-41.0,126.0,-700.0,-327.0,-16.0,66.0,-159.0,541.0,-537.0,-281.0,53.0,72.0,-178.0,-29.0,59.0,86.0,81.0,26.0,-130.0,-136.0,663.0,336.0,75.0,-28.0,-39.0,-376.0,1063.0,379.0,20.0,-20.0,31.0,469.0,977.0,199.0,-25.0,-16.0,84.0,15.0,638.0,114.0,-41.0,-16.0,100.0,110.0,270.0,94.0,-27.0,-18.0,93.0,-197.0,-10.0,130.0,0.0,-22.0,51.0,301.0,-212.0,-43.0,0.0,2.0,15.0,87.0,-245.0,-128.0,-8.0,1.0,-1.0,67.0,-195.0,-153.0,-16.0,25.0,-2.0,-175.0,-140.0,-36.0,-11.0,-2.0,-2.0,-76.0,-117.0,13.0,-6.0,7.0,-5.0,-25.0,-97.0,-1.0UP,44.0,7.0,-136.0,486.0,160.0,103.0,62.0,-1.0,-70.0,-536.0,470.0,110.0,30.0,-16.0,-23.0,419.0,553.0,75.0,9.0,9.0,-1.0,165.0,596.0,150.0,-6.0,-7.0,33.0,173.0,546.0,193.0,-16.0,-18.0,50.0,106.0,336.0,156.0,-29.0,-38.0,55.0,56.0,136.0,44.0,-25.0,-8.0,49.0,206.0,-25.0,-22.0,-14.0,-6.0,37.0,105.0,-88.0,-86.0,-5.0,16.0,22.0,-82.0,-153.0,-68.0,-7.0,-1.0,8.0,-93.0,-196.0,-89.0,-2.0,-1.0,-4.0,-65.0,-195.0,-72.0,-4.0,4.0,-7.0,-42.0,-172.0,-68.0,-6.0,1.0,-11.0,17.0,-124.0,-62.0,-7.0,19.0,-12.0,-78.0,-65.0,-8.0,-2.0,6.0,-6.0,49.0,-27.0,20.0UP,-8.0,84.0,-31.0,176.0,-161.0,-90.0,-7.0,100.0,-41.0,-712.0,-134.0,31.0,-5.0,46.0,-27.0,-985.0,-151.0,80.0,1.0,28.0,-15.0,-1005.0,61.0,152.0,-5.0,57.0,-17.0,-395.0,-81.0,210.0,4.0,68.0,1.0,-789.0,-55.0,452.0,-24.0,43.0,-5.0,-456.0,-117.0,792.0,-23.0,-50.0,1.0,-528.0,-69.0,824.0,-14.0,-116.0,-21.0,-53.0,-79.0,510.0,36.0,-167.0,-17.0,-1.0,-155.0,-254.0,79.0,-140.0,-26.0,265.0,39.0,-651.0,86.0,-47.0,-3.0,79.0,259.0,-860.0,49.0,21.0,7.0,299.0,511.0,-782.0,-13.0,80.0,26.0,-29.0,308.0,-586.0,-35.0,62.0,28.0,39.0,183.0,-311.0,-26.0,63.0,31.0,-8.0,59.0,-90.0UP,59.0,-168.0,-81.0,-67.0,-47.0,-271.0,101.0,-124.0,-48.0,422.0,178.0,-716.0,83.0,-34.0,-1.0,213.0,595.0,-746.0,30.0,19.0,19.0,297.0,673.0,-642.0,-19.0,63.0,38.0,-13.0,417.0,-479.0,-28.0,72.0,45.0,-120.0,210.0,-269.0,-19.0,54.0,36.0,103.0,51.0,-135.0,-20.0,29.0,28.0,167.0,-106.0,-48.0,-21.0,25.0,18.0,87.0,-131.0,-7.0,-26.0,36.0,9.0,-92.0,-162.0,65.0,-13.0,19.0,3.0,-110.0,-92.0,170.0,-5.0,14.0,-3.0,-51.0,-107.0,183.0,-6.0,-13.0,-8.0,4.0,-101.0,174.0,-4.0,2.0,-10.0,-115.0,-50.0,141.0,-5.0,-10.0,-11.0,-5.0,-70.0,83.0,-5.0,-13.0,-6.0,-11.0,-11.0,86.0UP,-11.0,80.0,41.0,-91.0,-358.0,495.0,-6.0,23.0,11.0,-375.0,-332.0,708.0,-15.0,-78.0,-59.0,-117.0,-372.0,572.0,15.0,-126.0,-69.0,-46.0,-147.0,179.0,38.0,-115.0,-70.0,92.0,-100.0,-195.0,72.0,-102.0,-45.0,183.0,309.0,-435.0,66.0,-47.0,-17.0,57.0,495.0,-578.0,37.0,-11.0,5.0,229.0,648.0,-655.0,-2.0,45.0,32.0,60.0,452.0,-520.0,-26.0,73.0,45.0,75.0,263.0,-325.0,-26.0,73.0,41.0,82.0,58.0,-129.0,-18.0,47.0,27.0,35.0,-71.0,-20.0,-16.0,26.0,11.0,35.0,-133.0,2.0,-21.0,7.0,9.0,-23.0,-101.0,108.0,-14.0,22.0,8.0,-158.0,-77.0,117.0,-8.0,5.0,1.0,33.0,-123.0,129.0UP,43.0,-141.0,-92.0,15.0,-129.0,-212.0,78.0,-117.0,-56.0,376.0,319.0,-543.0,66.0,-56.0,-20.0,142.0,553.0,-662.0,24.0,4.0,10.0,396.0,703.0,-695.0,-17.0,70.0,41.0,79.0,468.0,-495.0,-26.0,79.0,47.0,128.0,222.0,-279.0,-24.0,71.0,49.0,2.0,23.0,-35.0,-17.0,45.0,29.0,-69.0,-122.0,78.0,-14.0,19.0,15.0,30.0,-127.0,91.0,-10.0,7.0,7.0,-62.0,-121.0,88.0,-10.0,8.0,-6.0,8.0,-101.0,110.0,-6.0,9.0,-7.0,-78.0,-86.0,96.0,-10.0,13.0,-9.0,30.0,-96.0,64.0,-11.0,-5.0,-7.0,86.0,-96.0,55.0,-8.0,0.0,-5.0,-79.0,-34.0,63.0,-7.0,-7.0,-7.0,-75.0,7.0,63.0UP,42.0,-115.0,-49.0,-157.0,123.0,-223.0,64.0,-109.0,-36.0,55.0,327.0,-537.0,60.0,-37.0,-5.0,-136.0,463.0,-617.0,13.0,4.0,10.0,228.0,482.0,-560.0,-16.0,61.0,31.0,-101.0,362.0,-443.0,-31.0,56.0,40.0,131.0,171.0,-390.0,-25.0,73.0,33.0,-8.0,-4.0,-215.0,-20.0,70.0,29.0,-71.0,-143.0,-46.0,-16.0,60.0,10.0,-27.0,-211.0,89.0,-12.0,16.0,3.0,29.0,-159.0,182.0,-9.0,-7.0,-10.0,120.0,-107.0,184.0,-9.0,-15.0,-9.0,-29.0,-51.0,162.0,-6.0,-9.0,-7.0,7.0,-47.0,113.0,-7.0,-5.0,-5.0,-67.0,-22.0,105.0,-6.0,-8.0,-2.0,29.0,-4.0,97.0,-4.0,-6.0,-1.0,-37.0,6.0,80.0UP,35.0,-125.0,-47.0,25.0,50.0,-85.0,60.0,-95.0,-32.0,-4.0,128.0,-450.0,70.0,-72.0,-15.0,-52.0,301.0,-592.0,33.0,-32.0,-7.0,53.0,362.0,-747.0,5.0,3.0,12.0,102.0,421.0,-712.0,-37.0,64.0,28.0,69.0,349.0,-592.0,-34.0,97.0,38.0,-67.0,125.0,-336.0,-37.0,112.0,32.0,1.0,-110.0,-110.0,-21.0,77.0,19.0,-187.0,-206.0,124.0,-13.0,32.0,3.0,110.0,-130.0,287.0,-2.0,-7.0,-4.0,-47.0,-43.0,313.0,-5.0,-12.0,-6.0,83.0,-55.0,223.0,-11.0,-12.0,-4.0,-29.0,-59.0,151.0,-6.0,-16.0,1.0,13.0,-15.0,124.0,-7.0,-15.0,1.0,-5.0,-18.0,79.0,-3.0,-10.0,0.0,-39.0,-4.0,49.0UP,-56.0,81.0,13.0,-207.0,-385.0,1529.0,-121.0,-58.0,-107.0,-639.0,-398.0,1963.0,-37.0,-285.0,-206.0,-1492.0,-1059.0,286.0,106.0,-256.0,-78.0,970.0,196.0,-1417.0,225.0,-105.0,57.0,791.0,887.0,-2219.0,122.0,128.0,112.0,1957.0,1452.0,-1464.0,13.0,143.0,64.0,-710.0,430.0,-680.0,-40.0,73.0,16.0,2.0,-218.0,-289.0,-47.0,62.0,10.0,-153.0,-184.0,-58.0,-30.0,23.0,3.0,43.0,-117.0,126.0,-36.0,38.0,11.0,-49.0,-272.0,42.0,-22.0,14.0,7.0,-222.0,-79.0,131.0,-18.0,27.0,1.0,-182.0,-167.0,41.0,-13.0,43.0,-1.0,-185.0,-81.0,258.0,-16.0,16.0,2.0,-51.0,-27.0,320.0,-9.0,1.0,-7.0,73.0,36.0,372.0UP,-3.0,74.0,21.0,-406.0,-127.0,1050.0,-27.0,-51.0,-29.0,-553.0,-219.0,1009.0,-19.0,-146.0,-79.0,-565.0,-268.0,453.0,15.0,-288.0,-93.0,-143.0,-498.0,-600.0,87.0,-148.0,-60.0,796.0,309.0,-1098.0,89.0,-30.0,33.0,799.0,781.0,-1249.0,38.0,178.0,76.0,792.0,922.0,-824.0,-13.0,130.0,83.0,-255.0,125.0,-359.0,-44.0,107.0,22.0,-36.0,-283.0,20.0,-9.0,31.0,0.0,-254.0,-185.0,185.0,-10.0,8.0,-12.0,-21.0,-78.0,168.0,-7.0,-7.0,-5.0,-157.0,3.0,157.0,-14.0,5.0,3.0,-12.0,-41.0,108.0,-13.0,8.0,3.0,5.0,-43.0,134.0,-12.0,2.0,2.0,-45.0,-62.0,116.0,-8.0,-1.0,-2.0,-16.0,-67.0,109.0UP,-16.0,84.0,40.0,-161.0,-414.0,793.0,-24.0,10.0,-20.0,-559.0,-380.0,1046.0,-25.0,-132.0,-93.0,-101.0,-305.0,801.0,10.0,-204.0,-117.0,-819.0,-216.0,-160.0,78.0,-239.0,-56.0,846.0,242.0,-979.0,94.0,-65.0,-17.0,451.0,522.0,-1239.0,59.0,60.0,58.0,1273.0,1032.0,-1094.0,-20.0,202.0,54.0,-358.0,419.0,-564.0,-41.0,127.0,68.0,-260.0,229.0,-57.0,-19.0,93.0,33.0,-320.0,-336.0,195.0,-4.0,9.0,14.0,-107.0,-140.0,373.0,0.0,-1.0,-5.0,3.0,-183.0,239.0,-12.0,-21.0,-9.0,-9.0,-37.0,203.0,-9.0,-17.0,-5.0,-12.0,-58.0,100.0,-15.0,-9.0,-4.0,-27.0,-31.0,60.0,-3.0,-8.0,3.0,-20.0,-6.0,44.0UP,-25.0,84.0,55.0,-542.0,-297.0,966.0,-26.0,39.0,0.0,-353.0,-510.0,1105.0,-33.0,-115.0,-92.0,-911.0,-339.0,828.0,27.0,-259.0,-137.0,172.0,-311.0,-326.0,64.0,-233.0,-98.0,287.0,409.0,-1008.0,109.0,-105.0,-12.0,962.0,684.0,-1239.0,48.0,94.0,60.0,751.0,1067.0,-1112.0,-12.0,182.0,96.0,230.0,426.0,-620.0,-49.0,155.0,80.0,-54.0,44.0,-141.0,-25.0,105.0,38.0,-217.0,-376.0,270.0,2.0,10.0,4.0,-246.0,-214.0,407.0,0.0,-16.0,-14.0,-42.0,-102.0,299.0,-8.0,-17.0,-9.0,-248.0,-25.0,202.0,-10.0,-21.0,-5.0,76.0,-53.0,101.0,-9.0,-1.0,-2.0,-82.0,-67.0,33.0,-7.0,-5.0,1.0,126.0,-80.0,1.0UP,-20.0,66.0,20.0,-201.0,-483.0,878.0,-27.0,-57.0,-58.0,-353.0,-444.0,947.0,-14.0,-143.0,-105.0,-158.0,-203.0,399.0,40.0,-244.0,-115.0,-486.0,-67.0,-438.0,79.0,-143.0,-66.0,470.0,562.0,-1003.0,87.0,-58.0,-5.0,538.0,841.0,-1171.0,27.0,103.0,71.0,1020.0,1047.0,-928.0,-25.0,151.0,88.0,-126.0,249.0,-561.0,-45.0,122.0,67.0,-40.0,-153.0,-188.0,-18.0,86.0,35.0,-293.0,-344.0,181.0,-4.0,13.0,7.0,-89.0,-179.0,323.0,-5.0,2.0,-7.0,-133.0,-91.0,279.0,-13.0,-5.0,-9.0,-53.0,-92.0,199.0,-9.0,-10.0,-6.0,26.0,-80.0,147.0,-12.0,-4.0,-6.0,-3.0,-89.0,107.0,-3.0,-11.0,-8.0,28.0,-36.0,83.0UP,-24.0,76.0,28.0,-311.0,-494.0,1026.0,-26.0,-46.0,-56.0,-403.0,-502.0,1080.0,-41.0,-166.0,-174.0,-611.0,-193.0,287.0,78.0,-300.0,-123.0,337.0,351.0,-809.0,87.0,-152.0,-33.0,320.0,676.0,-1199.0,105.0,-20.0,78.0,1197.0,901.0,-1167.0,-5.0,190.0,100.0,175.0,490.0,-690.0,-28.0,148.0,71.0,216.0,81.0,-305.0,-36.0,122.0,32.0,-337.0,-290.0,23.0,-15.0,30.0,2.0,-56.0,-241.0,231.0,-1.0,9.0,-5.0,-145.0,-58.0,275.0,-6.0,-15.0,-3.0,2.0,-46.0,242.0,-13.0,0.0,2.0,-181.0,-36.0,186.0,-11.0,-11.0,2.0,10.0,-81.0,122.0,-7.0,-10.0,-9.0,-17.0,-60.0,79.0,-5.0,-8.0,-11.0,18.0,-24.0,25.0UP,-30.0,90.0,76.0,-296.0,-473.0,704.0,-24.0,60.0,18.0,-325.0,-634.0,1049.0,-33.0,-113.0,-104.0,-142.0,-561.0,915.0,25.0,-204.0,-164.0,-712.0,-176.0,-41.0,75.0,-236.0,-130.0,671.0,421.0,-999.0,99.0,-131.0,-29.0,511.0,1061.0,-1111.0,57.0,51.0,74.0,1172.0,1010.0,-991.0,-22.0,156.0,112.0,-116.0,444.0,-405.0,-30.0,161.0,78.0,-78.0,-121.0,-152.0,-28.0,88.0,26.0,-82.0,-222.0,89.0,3.0,25.0,5.0,-204.0,-119.0,229.0,-3.0,5.0,-4.0,-45.0,-134.0,183.0,-6.0,-13.0,-2.0,-123.0,-74.0,200.0,-12.0,-13.0,-4.0,-26.0,-95.0,128.0,-10.0,-8.0,-8.0,-77.0,-68.0,86.0,-4.0,-8.0,-5.0,21.0,-63.0,46.0UP,-15.0,90.0,82.0,-452.0,-306.0,641.0,-35.0,85.0,25.0,-531.0,-499.0,1243.0,-70.0,-101.0,-69.0,-420.0,-550.0,1344.0,-14.0,-208.0,-188.0,-669.0,-385.0,208.0,79.0,-307.0,-126.0,591.0,379.0,-1084.0,124.0,-127.0,-27.0,401.0,889.0,-1496.0,86.0,54.0,103.0,1366.0,1049.0,-1243.0,4.0,205.0,109.0,171.0,261.0,-628.0,-24.0,154.0,61.0,-17.0,-79.0,-82.0,-20.0,69.0,16.0,-113.0,-192.0,157.0,-5.0,14.0,-8.0,-216.0,-93.0,293.0,-1.0,-8.0,3.0,-44.0,-40.0,177.0,-10.0,6.0,-2.0,-141.0,-115.0,98.0,-18.0,5.0,2.0,-146.0,-26.0,107.0,-11.0,6.0,4.0,-40.0,-64.0,87.0,-11.0,-8.0,-4.0,-54.0,-31.0,92.0UP,-38.0,93.0,37.0,-298.0,-575.0,980.0,-39.0,-18.0,-48.0,-344.0,-548.0,1295.0,-42.0,-155.0,-156.0,-269.0,-290.0,630.0,60.0,-290.0,-128.0,-235.0,84.0,-506.0,87.0,-178.0,-64.0,538.0,584.0,-1242.0,105.0,-64.0,29.0,816.0,936.0,-1344.0,15.0,153.0,77.0,880.0,850.0,-1013.0,-24.0,151.0,83.0,-39.0,266.0,-519.0,-30.0,137.0,56.0,-128.0,-165.0,-140.0,-23.0,67.0,24.0,-306.0,-219.0,264.0,-3.0,10.0,4.0,-114.0,-137.0,321.0,-8.0,6.0,-5.0,-46.0,-92.0,266.0,-12.0,0.0,1.0,-160.0,-96.0,173.0,-15.0,8.0,4.0,-119.0,-93.0,194.0,-13.0,-4.0,1.0,-33.0,-110.0,206.0,0.0,-13.0,-9.0,16.0,-51.0,166.0UP,-29.0,90.0,72.0,-317.0,-618.0,856.0,-65.0,-45.0,-56.0,-178.0,-739.0,982.0,-15.0,-146.0,-180.0,70.0,-289.0,498.0,74.0,-324.0,-175.0,450.0,31.0,-554.0,101.0,-156.0,-74.0,259.0,858.0,-927.0,90.0,-58.0,41.0,1019.0,953.0,-1157.0,-7.0,198.0,88.0,269.0,996.0,-738.0,-34.0,140.0,87.0,140.0,184.0,-476.0,-28.0,131.0,57.0,-304.0,-113.0,-105.0,-19.0,57.0,24.0,-275.0,-234.0,168.0,9.0,18.0,11.0,-173.0,-68.0,317.0,-3.0,1.0,2.0,-87.0,-162.0,249.0,-14.0,-6.0,1.0,-124.0,-136.0,215.0,-14.0,-7.0,-7.0,-16.0,-143.0,156.0,-9.0,-13.0,-8.0,-63.0,-60.0,120.0,0.0,-2.0,-5.0,-76.0,-33.0,97.0UP,-11.0,97.0,80.0,-412.0,-343.0,516.0,-27.0,75.0,32.0,-488.0,-602.0,945.0,-35.0,-95.0,-90.0,-121.0,-610.0,871.0,-19.0,-175.0,-156.0,-20.0,-240.0,417.0,56.0,-285.0,-121.0,588.0,81.0,-553.0,100.0,-147.0,-41.0,422.0,754.0,-987.0,75.0,-21.0,33.0,648.0,949.0,-1222.0,6.0,161.0,69.0,192.0,899.0,-830.0,-44.0,156.0,72.0,-46.0,216.0,-394.0,-21.0,120.0,68.0,-185.0,-152.0,-76.0,-15.0,56.0,28.0,-183.0,-307.0,213.0,5.0,9.0,6.0,-52.0,-185.0,252.0,-15.0,2.0,-12.0,-39.0,-133.0,233.0,-11.0,6.0,1.0,-227.0,-26.0,220.0,-11.0,4.0,4.0,-38.0,-138.0,164.0,-5.0,-9.0,-5.0,-5.0,-126.0,156.0UP,-16.0,78.0,59.0,-417.0,-349.0,796.0,-34.0,8.0,1.0,-506.0,-585.0,1041.0,-33.0,-103.0,-95.0,-324.0,-389.0,939.0,-23.0,-208.0,-170.0,-556.0,-360.0,31.0,90.0,-270.0,-146.0,995.0,215.0,-813.0,92.0,-161.0,-48.0,582.0,772.0,-1375.0,78.0,3.0,53.0,1302.0,1136.0,-1382.0,-20.0,181.0,109.0,38.0,916.0,-1042.0,-36.0,195.0,97.0,56.0,180.0,-577.0,-22.0,165.0,59.0,-258.0,-211.0,10.0,-15.0,55.0,13.0,-194.0,-317.0,404.0,0.0,20.0,-3.0,-379.0,-196.0,543.0,-5.0,-30.0,1.0,12.0,-163.0,424.0,-14.0,2.0,1.0,-435.0,-129.0,335.0,-9.0,-29.0,6.0,45.0,-49.0,203.0,-5.0,-9.0,-3.0,-163.0,-27.0,149.0UP,-21.0,99.0,93.0,-300.0,-357.0,732.0,-36.0,97.0,28.0,-719.0,-521.0,1311.0,-70.0,-94.0,-79.0,-469.0,-545.0,1352.0,-61.0,-181.0,-176.0,-314.0,-321.0,245.0,45.0,-340.0,-147.0,775.0,-224.0,-722.0,139.0,-208.0,-55.0,142.0,1070.0,-1452.0,129.0,-29.0,43.0,997.0,1204.0,-1640.0,28.0,226.0,124.0,-2.0,1145.0,-1358.0,-60.0,268.0,93.0,455.0,-158.0,-542.0,-23.0,152.0,76.0,-428.0,-416.0,89.0,-24.0,76.0,7.0,-196.0,-434.0,434.0,2.0,-31.0,1.0,12.0,-252.0,550.0,-6.0,-5.0,-27.0,16.0,-97.0,549.0,-1.0,-35.0,-13.0,-74.0,-32.0,433.0,3.0,-16.0,-13.0,-156.0,-4.0,238.0,-2.0,-21.0,-6.0,-12.0,-47.0,96.0UP,-5.0,85.0,61.0,-101.0,-266.0,662.0,-27.0,58.0,0.0,-146.0,-449.0,1028.0,-29.0,-104.0,-72.0,-356.0,-370.0,1021.0,-17.0,-179.0,-120.0,-218.0,-157.0,242.0,63.0,-271.0,-89.0,-37.0,138.0,-628.0,66.0,-148.0,-31.0,496.0,623.0,-1173.0,51.0,-32.0,30.0,420.0,915.0,-1346.0,-13.0,133.0,78.0,244.0,888.0,-1099.0,-38.0,156.0,84.0,-55.0,260.0,-670.0,-36.0,164.0,70.0,-92.0,-246.0,-141.0,-27.0,97.0,39.0,182.0,-482.0,318.0,5.0,55.0,13.0,-90.0,-364.0,550.0,12.0,-7.0,-11.0,-7.0,-210.0,557.0,4.0,-17.0,-16.0,-356.0,-124.0,440.0,0.0,-43.0,-12.0,-23.0,-135.0,268.0,-5.0,-37.0,-16.0,-12.0,-91.0,140.0UP,-8.0,-80.0,46.0,1667.0,-143.0,-172.0,-5.0,-22.0,21.0,1521.0,-32.0,-199.0,-7.0,30.0,25.0,634.0,-67.0,-34.0,-1.0,8.0,53.0,-147.0,-113.0,80.0,0.0,-22.0,86.0,-244.0,-365.0,108.0,-14.0,19.0,69.0,-24.0,-712.0,121.0,-68.0,37.0,-106.0,1522.0,-1119.0,283.0,-19.0,71.0,-166.0,284.0,-1074.0,176.0,12.0,-55.0,-203.0,704.0,-526.0,234.0,135.0,-79.0,-72.0,-1082.0,651.0,-75.0,76.0,-73.0,-27.0,113.0,1194.0,-206.0,62.0,25.0,14.0,-607.0,1260.0,-459.0,3.0,58.0,37.0,-579.0,900.0,-435.0,6.0,43.0,29.0,-370.0,610.0,-267.0,-16.0,44.0,54.0,-277.0,542.0,-159.0,-15.0,19.0,47.0,-168.0,326.0,34.0UP,-7.0,11.0,36.0,-454.0,-760.0,170.0,-24.0,-26.0,-80.0,-237.0,-868.0,10.0,11.0,-35.0,-172.0,266.0,-596.0,-152.0,35.0,-67.0,-162.0,253.0,93.0,-110.0,81.0,-62.0,-96.0,467.0,715.0,-70.0,66.0,-33.0,0.0,382.0,1154.0,-59.0,26.0,0.0,30.0,375.0,1000.0,-126.0,-8.0,34.0,62.0,8.0,739.0,-86.0,-29.0,26.0,66.0,210.0,376.0,-17.0,-35.0,41.0,69.0,42.0,5.0,32.0,-15.0,21.0,57.0,64.0,-108.0,71.0,-9.0,13.0,42.0,-169.0,-197.0,44.0,0.0,-2.0,19.0,-146.0,-199.0,-3.0,-16.0,-1.0,0.0,-61.0,-263.0,-51.0,-17.0,1.0,-4.0,-183.0,-155.0,-9.0,-14.0,2.0,-7.0,5.0,-99.0,-7.0UP,12.0,58.0,10.0,-964.0,-294.0,456.0,2.0,68.0,-52.0,-1713.0,-301.0,591.0,-22.0,-121.0,-71.0,-1717.0,-206.0,225.0,7.0,-115.0,-74.0,130.0,-326.0,-193.0,24.0,-123.0,-72.0,784.0,-36.0,-414.0,54.0,-69.0,-66.0,1367.0,276.0,-350.0,36.0,-24.0,-50.0,543.0,677.0,-203.0,28.0,-30.0,-5.0,551.0,801.0,-201.0,3.0,20.0,47.0,368.0,757.0,-162.0,-11.0,15.0,61.0,154.0,533.0,-73.0,-13.0,30.0,71.0,-28.0,190.0,-37.0,-17.0,12.0,46.0,43.0,-6.0,-13.0,-17.0,20.0,40.0,-91.0,-121.0,9.0,-16.0,10.0,21.0,-31.0,-41.0,49.0,-2.0,12.0,18.0,-165.0,-101.0,-13.0,-9.0,5.0,2.0,-142.0,-147.0,-52.0UP,-13.0,-4.0,37.0,-604.0,-602.0,101.0,-5.0,-23.0,-26.0,-233.0,-642.0,1.0,-14.0,-22.0,-95.0,850.0,-724.0,-137.0,-3.0,19.0,-113.0,791.0,-633.0,-46.0,19.0,-5.0,-139.0,443.0,-318.0,54.0,64.0,-4.0,-102.0,-574.0,483.0,197.0,66.0,-65.0,-70.0,-134.0,1166.0,49.0,48.0,-20.0,4.0,319.0,1473.0,-115.0,5.0,8.0,51.0,1158.0,970.0,-480.0,-5.0,84.0,93.0,53.0,365.0,-468.0,0.0,79.0,95.0,-240.0,-59.0,-333.0,14.0,60.0,60.0,-1241.0,-39.0,51.0,1.0,0.0,40.0,-543.0,115.0,281.0,-20.0,-11.0,12.0,-693.0,16.0,287.0,-36.0,-39.0,21.0,-111.0,-80.0,294.0,-31.0,-39.0,5.0,170.0,-204.0,46.0UP,-4.0,-80.0,-146.0,172.0,44.0,-234.0,5.0,-59.0,-130.0,662.0,457.0,-338.0,33.0,-43.0,-90.0,579.0,691.0,-134.0,46.0,-12.0,-1.0,527.0,1052.0,-110.0,43.0,-5.0,37.0,176.0,882.0,-193.0,20.0,31.0,73.0,117.0,789.0,-344.0,12.0,50.0,74.0,-572.0,574.0,-107.0,-2.0,35.0,77.0,-336.0,330.0,18.0,-7.0,4.0,73.0,-435.0,6.0,145.0,-21.0,-16.0,51.0,36.0,-223.0,10.0,-23.0,-10.0,27.0,22.0,-318.0,4.0,-23.0,6.0,7.0,177.0,-389.0,-26.0,-21.0,9.0,-3.0,101.0,-354.0,81.0,-14.0,3.0,-6.0,104.0,-341.0,99.0,-4.0,2.0,-9.0,-3.0,-252.0,111.0,4.0,4.0,-12.0,-67.0,-156.0,68.0UP,7.0,-37.0,106.0,-79.0,-439.0,-157.0,-30.0,27.0,74.0,-43.0,-959.0,-12.0,-83.0,18.0,-103.0,972.0,-1020.0,187.0,-28.0,71.0,-190.0,918.0,-855.0,517.0,25.0,-34.0,-177.0,3.0,119.0,399.0,85.0,-42.0,-80.0,-706.0,533.0,43.0,66.0,-78.0,-14.0,-654.0,1136.0,-147.0,37.0,-32.0,19.0,753.0,864.0,-468.0,25.0,46.0,26.0,383.0,695.0,-669.0,7.0,66.0,48.0,-558.0,553.0,-611.0,23.0,42.0,42.0,-1271.0,310.0,-300.0,-25.0,24.0,47.0,-1176.0,234.0,241.0,-12.0,-26.0,39.0,-190.0,143.0,289.0,-26.0,-10.0,48.0,340.0,144.0,139.0,-12.0,-13.0,44.0,360.0,-51.0,-30.0,-23.0,4.0,24.0,362.0,-204.0,-78.0UP,-13.0,21.0,73.0,388.0,-662.0,-3.0,-11.0,63.0,14.0,-384.0,-902.0,185.0,-23.0,38.0,-109.0,-753.0,-756.0,196.0,13.0,-27.0,-161.0,-719.0,-125.0,131.0,12.0,-89.0,-148.0,593.0,349.0,-320.0,30.0,-31.0,-89.0,676.0,732.0,-227.0,28.0,-13.0,-13.0,843.0,901.0,-227.0,32.0,44.0,53.0,18.0,912.0,-21.0,31.0,28.0,82.0,-69.0,553.0,88.0,22.0,23.0,82.0,-496.0,247.0,149.0,12.0,-11.0,52.0,-135.0,-45.0,221.0,-8.0,-9.0,35.0,-123.0,-132.0,62.0,-17.0,-8.0,20.0,63.0,-218.0,8.0,-25.0,-5.0,17.0,-53.0,-257.0,-22.0,-21.0,-11.0,6.0,6.0,-216.0,3.0,-23.0,-3.0,-5.0,-72.0,-163.0,14.0UP,-13.0,0.0,83.0,-83.0,-570.0,-46.0,-37.0,4.0,16.0,111.0,-749.0,-87.0,-39.0,86.0,-104.0,50.0,-876.0,96.0,-6.0,8.0,-177.0,-20.0,-494.0,-14.0,44.0,32.0,-153.0,-171.0,92.0,101.0,69.0,-57.0,-94.0,-331.0,883.0,-12.0,55.0,7.0,-6.0,196.0,1297.0,16.0,14.0,-6.0,54.0,66.0,1100.0,-11.0,-14.0,23.0,88.0,363.0,603.0,-97.0,-10.0,12.0,85.0,608.0,90.0,-145.0,-9.0,61.0,57.0,68.0,-261.0,-57.0,-14.0,27.0,36.0,-467.0,-282.0,106.0,-10.0,8.0,25.0,-932.0,-187.0,268.0,7.0,-55.0,3.0,-51.0,-127.0,125.0,12.0,-17.0,2.0,241.0,-113.0,-26.0,-1.0,4.0,1.0,403.0,-183.0,-159.0UP,15.0,62.0,35.0,-272.0,-962.0,446.0,-30.0,30.0,-68.0,-165.0,-943.0,301.0,-28.0,20.0,-161.0,-1558.0,-234.0,77.0,-30.0,-63.0,-139.0,-13.0,370.0,-180.0,-7.0,-52.0,-98.0,-271.0,846.0,-283.0,21.0,-70.0,-56.0,672.0,872.0,-285.0,39.0,-33.0,-15.0,326.0,902.0,-200.0,50.0,-9.0,37.0,726.0,661.0,-198.0,25.0,26.0,61.0,57.0,566.0,-113.0,1.0,8.0,70.0,24.0,260.0,61.0,-23.0,-1.0,58.0,-317.0,39.0,166.0,-24.0,-27.0,45.0,-48.0,-200.0,83.0,-14.0,-21.0,22.0,350.0,-259.0,-155.0,-8.0,-3.0,16.0,241.0,-148.0,-260.0,5.0,26.0,15.0,163.0,-167.0,-276.0,5.0,5.0,16.0,-479.0,-76.0,-177.0UP,-3.0,-32.0,-142.0,1175.0,-260.0,-125.0,39.0,22.0,-143.0,198.0,460.0,6.0,52.0,-35.0,-90.0,661.0,533.0,-12.0,40.0,-13.0,-34.0,389.0,727.0,37.0,20.0,-5.0,17.0,451.0,681.0,8.0,23.0,2.0,46.0,92.0,736.0,74.0,21.0,6.0,59.0,-171.0,697.0,74.0,9.0,-12.0,61.0,-154.0,438.0,26.0,-17.0,-3.0,66.0,-121.0,126.0,-87.0,-29.0,-3.0,51.0,-90.0,-81.0,-113.0,-35.0,11.0,45.0,-153.0,-190.0,-76.0,-19.0,-5.0,7.0,-132.0,-242.0,-30.0,-22.0,3.0,5.0,-38.0,-263.0,30.0,-11.0,5.0,-12.0,-163.0,-170.0,70.0,-8.0,-3.0,-9.0,-123.0,-68.0,40.0,-9.0,-11.0,-15.0,251.0,-83.0,-88.0UP,-23.0,0.0,62.0,-1185.0,-591.0,-15.0,-52.0,34.0,-47.0,-292.0,-1095.0,123.0,-9.0,-37.0,-136.0,236.0,-437.0,-35.0,28.0,-9.0,-155.0,1854.0,-361.0,149.0,68.0,-3.0,-103.0,1171.0,506.0,238.0,60.0,1.0,-67.0,-19.0,505.0,277.0,55.0,-17.0,-3.0,-1241.0,1132.0,83.0,26.0,-26.0,13.0,-1268.0,927.0,-233.0,13.0,-8.0,44.0,-461.0,947.0,-364.0,0.0,40.0,50.0,-905.0,550.0,-239.0,-5.0,-25.0,46.0,-686.0,355.0,3.0,-30.0,-28.0,51.0,616.0,-13.0,-96.0,-24.0,-15.0,29.0,933.0,-153.0,12.0,-27.0,35.0,21.0,505.0,-201.0,-12.0,-8.0,4.0,-2.0,-341.0,-17.0,123.0,-19.0,-24.0,22.0,9.0,-73.0,22.0UP,18.0,9.0,-102.0,410.0,50.0,267.0,48.0,19.0,-88.0,304.0,310.0,348.0,39.0,-14.0,-56.0,-842.0,527.0,254.0,51.0,-53.0,-31.0,-445.0,791.0,16.0,20.0,-18.0,3.0,-638.0,901.0,-169.0,19.0,-21.0,28.0,130.0,914.0,-297.0,-5.0,21.0,46.0,-296.0,819.0,-225.0,-19.0,-7.0,53.0,56.0,463.0,-183.0,-37.0,3.0,56.0,260.0,101.0,-185.0,-32.0,9.0,62.0,140.0,-217.0,-110.0,-16.0,9.0,43.0,216.0,-318.0,-83.0,1.0,18.0,24.0,-237.0,-278.0,56.0,-7.0,-9.0,6.0,-16.0,-277.0,16.0,-6.0,12.0,-5.0,-225.0,-195.0,66.0,-18.0,-11.0,-11.0,142.0,-133.0,35.0,-14.0,12.0,-16.0,-102.0,8.0,35.0UP,-35.0,0.0,82.0,-278.0,-740.0,-100.0,-27.0,32.0,15.0,-559.0,-998.0,10.0,-19.0,-14.0,-106.0,507.0,-768.0,28.0,19.0,21.0,-142.0,906.0,-352.0,195.0,41.0,9.0,-136.0,484.0,7.0,308.0,68.0,-10.0,-98.0,-296.0,362.0,308.0,65.0,-39.0,-67.0,-719.0,741.0,115.0,38.0,-35.0,-21.0,-314.0,1045.0,-152.0,19.0,-6.0,17.0,-65.0,1068.0,-202.0,6.0,20.0,69.0,-75.0,913.0,-226.0,-6.0,-4.0,79.0,-360.0,423.0,-125.0,-16.0,-2.0,72.0,74.0,88.0,-102.0,-21.0,1.0,48.0,-112.0,-104.0,-25.0,-14.0,3.0,29.0,343.0,-97.0,-67.0,-8.0,10.0,9.0,44.0,-120.0,-12.0,-10.0,-1.0,11.0,81.0,-119.0,39.0UP,11.0,19.0,-108.0,205.0,-171.0,26.0,27.0,-2.0,-111.0,314.0,91.0,-7.0,34.0,-31.0,-92.0,1034.0,194.0,-49.0,49.0,16.0,-75.0,375.0,515.0,147.0,35.0,8.0,-27.0,-136.0,846.0,220.0,17.0,20.0,12.0,-818.0,1204.0,289.0,-11.0,-13.0,64.0,-511.0,1177.0,163.0,-6.0,-3.0,87.0,-212.0,811.0,105.0,-15.0,-17.0,109.0,-60.0,202.0,20.0,-19.0,-35.0,92.0,140.0,-245.0,-81.0,-29.0,-15.0,55.0,59.0,-409.0,-84.0,-11.0,11.0,11.0,-64.0,-381.0,-38.0,-9.0,18.0,-11.0,89.0,-465.0,-12.0,-9.0,-3.0,-18.0,137.0,-369.0,-38.0,-13.0,-1.0,-17.0,7.0,-224.0,-36.0,-12.0,-2.0,-12.0,-54.0,-88.0,-13.0UP,-28.0,-7.0,49.0,374.0,-932.0,-345.0,-56.0,51.0,-67.0,1323.0,-1208.0,-104.0,18.0,136.0,-158.0,904.0,-601.0,511.0,38.0,32.0,-140.0,-100.0,154.0,929.0,72.0,-17.0,-95.0,-1009.0,577.0,492.0,51.0,-93.0,-53.0,-1400.0,902.0,63.0,33.0,-21.0,-21.0,-529.0,1024.0,-483.0,17.0,14.0,28.0,-1325.0,1086.0,-152.0,5.0,-11.0,72.0,-131.0,723.0,-39.0,-18.0,1.0,62.0,-400.0,480.0,56.0,-34.0,-56.0,63.0,844.0,107.0,-132.0,-28.0,-21.0,51.0,860.0,-170.0,-281.0,-9.0,-1.0,36.0,624.0,-321.0,-139.0,4.0,29.0,17.0,120.0,-240.0,-52.0,-5.0,19.0,5.0,-44.0,-180.0,52.0,-19.0,-1.0,11.0,26.0,-221.0,-1.0UP,-26.0,13.0,42.0,-119.0,-897.0,-277.0,-34.0,56.0,-36.0,-118.0,-986.0,-244.0,5.0,42.0,-162.0,2241.0,-657.0,166.0,29.0,68.0,-135.0,636.0,-82.0,683.0,65.0,-7.0,-120.0,41.0,288.0,662.0,73.0,-16.0,-37.0,-2367.0,750.0,264.0,43.0,-75.0,-8.0,-1490.0,920.0,-123.0,7.0,5.0,27.0,-565.0,1079.0,-223.0,-5.0,9.0,57.0,-180.0,921.0,-70.0,8.0,9.0,51.0,277.0,844.0,-168.0,-7.0,-28.0,75.0,156.0,229.0,-80.0,-21.0,-13.0,45.0,607.0,-43.0,-160.0,-44.0,11.0,51.0,469.0,-257.0,3.0,-34.0,22.0,20.0,-134.0,-254.0,122.0,-20.0,-12.0,17.0,63.0,-391.0,110.0,-10.0,-18.0,2.0,19.0,-369.0,-9.0UP,-32.0,-24.0,-4.0,1718.0,-728.0,-771.0,-5.0,79.0,-23.0,3397.0,-1009.0,-338.0,30.0,199.0,-99.0,1622.0,-471.0,469.0,38.0,116.0,-66.0,-1822.0,162.0,1101.0,68.0,-34.0,-61.0,-2372.0,555.0,700.0,24.0,-67.0,-17.0,-1882.0,676.0,88.0,38.0,-90.0,-19.0,399.0,744.0,-527.0,-1.0,16.0,20.0,587.0,674.0,-436.0,5.0,13.0,22.0,-82.0,567.0,-210.0,-5.0,23.0,29.0,-177.0,432.0,-105.0,-14.0,10.0,29.0,21.0,441.0,-22.0,-13.0,0.0,45.0,-138.0,293.0,79.0,-26.0,-19.0,44.0,-39.0,156.0,44.0,-24.0,-23.0,37.0,189.0,36.0,-47.0,-30.0,6.0,28.0,554.0,-187.0,-151.0,-14.0,23.0,21.0,416.0,-251.0,-70.0DOWN,-19.0,-19.0,-88.0,311.0,1389.0,1091.0,-98.0,-109.0,-10.0,2220.0,2539.0,825.0,-54.0,-10.0,211.0,216.0,720.0,-162.0,-79.0,25.0,187.0,213.0,-1885.0,-1235.0,32.0,72.0,99.0,-1597.0,-3251.0,-1229.0,24.0,-40.0,-131.0,215.0,-1428.0,-361.0,68.0,-10.0,-151.0,-177.0,63.0,-78.0,65.0,29.0,-96.0,234.0,696.0,301.0,54.0,10.0,-7.0,136.0,861.0,310.0,36.0,5.0,35.0,102.0,609.0,239.0,17.0,-4.0,44.0,-53.0,312.0,112.0,9.0,-2.0,34.0,-168.0,85.0,40.0,2.0,-6.0,16.0,-98.0,11.0,-22.0,2.0,-2.0,4.0,-15.0,-3.0,-40.0,-1.0,2.0,2.0,17.0,9.0,-2.0,0.0,-1.0,2.0,44.0,3.0,14.0DOWN,-89.0,-133.0,-3.0,1124.0,2351.0,812.0,-96.0,20.0,181.0,744.0,618.0,-142.0,-58.0,-62.0,230.0,417.0,-813.0,-868.0,1.0,126.0,104.0,-1251.0,-2994.0,-1085.0,45.0,-65.0,-87.0,-384.0,-1465.0,-360.0,51.0,-1.0,-114.0,-101.0,-671.0,-187.0,41.0,-7.0,-110.0,132.0,17.0,-5.0,47.0,11.0,-46.0,105.0,428.0,99.0,42.0,7.0,-18.0,213.0,516.0,155.0,31.0,11.0,8.0,165.0,519.0,185.0,20.0,3.0,19.0,-11.0,354.0,135.0,14.0,3.0,23.0,-74.0,216.0,83.0,6.0,-7.0,19.0,-76.0,107.0,35.0,4.0,-5.0,14.0,-18.0,39.0,3.0,-1.0,-6.0,9.0,-49.0,2.0,6.0,-1.0,2.0,3.0,-15.0,-16.0,7.0DOWN,-37.0,-91.0,-1.0,1518.0,2746.0,1225.0,-130.0,8.0,177.0,1397.0,930.0,124.0,-94.0,-106.0,228.0,680.0,-337.0,-819.0,-41.0,86.0,92.0,-1500.0,-3460.0,-1504.0,95.0,-62.0,-90.0,-682.0,-1624.0,-549.0,64.0,56.0,-121.0,-61.0,-789.0,-227.0,37.0,-7.0,-107.0,210.0,153.0,39.0,43.0,28.0,-50.0,15.0,517.0,140.0,44.0,19.0,-16.0,168.0,598.0,193.0,44.0,13.0,12.0,78.0,545.0,229.0,26.0,6.0,29.0,-10.0,367.0,200.0,16.0,-12.0,30.0,-112.0,182.0,97.0,0.0,-4.0,19.0,-114.0,68.0,22.0,2.0,-11.0,13.0,-28.0,26.0,-24.0,-1.0,-1.0,6.0,-36.0,-8.0,7.0,1.0,-3.0,3.0,-20.0,-6.0,10.0DOWN,-1.0,43.0,-137.0,135.0,1428.0,1383.0,-166.0,-165.0,51.0,2004.0,2534.0,856.0,7.0,-42.0,239.0,469.0,848.0,-166.0,-78.0,-84.0,235.0,21.0,-1789.0,-1589.0,109.0,114.0,33.0,-1687.0,-3135.0,-1220.0,12.0,-21.0,-95.0,546.0,-1276.0,-247.0,24.0,45.0,-134.0,-88.0,-357.0,-52.0,36.0,36.0,-104.0,186.0,347.0,306.0,43.0,29.0,-61.0,-10.0,672.0,426.0,44.0,-3.0,-3.0,18.0,789.0,269.0,35.0,-2.0,34.0,5.0,520.0,101.0,23.0,-28.0,61.0,-19.0,164.0,-38.0,12.0,-9.0,42.0,-54.0,-69.0,-28.0,4.0,-7.0,10.0,-132.0,-92.0,-16.0,-2.0,8.0,-9.0,78.0,-12.0,-10.0,-1.0,1.0,-8.0,44.0,22.0,-6.0DOWN,-35.0,53.0,-130.0,-82.0,929.0,963.0,-89.0,-97.0,63.0,1855.0,2518.0,784.0,-129.0,-33.0,201.0,823.0,563.0,72.0,-72.0,-97.0,234.0,51.0,-1071.0,-1139.0,19.0,71.0,33.0,-1762.0,-3195.0,-1149.0,91.0,-43.0,-93.0,-54.0,-1468.0,-622.0,49.0,37.0,-123.0,72.0,-581.0,-129.0,35.0,5.0,-99.0,321.0,228.0,196.0,46.0,26.0,-53.0,28.0,513.0,244.0,40.0,19.0,-20.0,145.0,615.0,203.0,42.0,16.0,15.0,37.0,606.0,176.0,25.0,-3.0,38.0,-33.0,388.0,140.0,18.0,-8.0,39.0,-146.0,157.0,95.0,5.0,-14.0,24.0,-85.0,25.0,16.0,3.0,-2.0,11.0,-12.0,-13.0,1.0,-3.0,-4.0,4.0,23.0,-22.0,-4.0DOWN,-41.0,29.0,-100.0,-97.0,1615.0,1512.0,-162.0,-162.0,-21.0,2388.0,2423.0,929.0,-75.0,9.0,217.0,307.0,616.0,-468.0,-69.0,-24.0,212.0,319.0,-1929.0,-1514.0,91.0,126.0,122.0,-2064.0,-3136.0,-1223.0,21.0,-82.0,-102.0,298.0,-1533.0,-65.0,42.0,-11.0,-137.0,-256.0,-421.0,-238.0,46.0,20.0,-107.0,25.0,287.0,67.0,62.0,11.0,-47.0,103.0,704.0,135.0,62.0,13.0,2.0,316.0,846.0,187.0,41.0,5.0,40.0,177.0,643.0,257.0,20.0,-9.0,44.0,-43.0,279.0,182.0,6.0,-12.0,31.0,-131.0,10.0,117.0,0.0,-11.0,12.0,-113.0,-28.0,23.0,-1.0,2.0,1.0,33.0,-1.0,-4.0,1.0,0.0,4.0,0.0,31.0,18.0DOWN,-73.0,-55.0,-29.0,695.0,2464.0,1679.0,-150.0,11.0,149.0,2308.0,897.0,865.0,-88.0,-160.0,222.0,267.0,-197.0,-916.0,-14.0,74.0,141.0,-779.0,-3418.0,-2098.0,90.0,-82.0,-80.0,-1687.0,-1745.0,-1377.0,57.0,105.0,-148.0,141.0,-911.0,-258.0,53.0,-24.0,-157.0,258.0,416.0,79.0,70.0,45.0,-57.0,131.0,865.0,339.0,59.0,-2.0,16.0,386.0,975.0,380.0,36.0,-2.0,51.0,171.0,673.0,340.0,13.0,-27.0,58.0,13.0,181.0,98.0,11.0,-8.0,30.0,-198.0,-109.0,34.0,5.0,-4.0,7.0,-144.0,-65.0,-8.0,8.0,6.0,-1.0,154.0,37.0,0.0,-2.0,6.0,3.0,-36.0,23.0,24.0,0.0,2.0,3.0,-53.0,3.0,41.0DOWN,-67.0,-35.0,-64.0,491.0,2166.0,1405.0,-161.0,-4.0,118.0,1952.0,1156.0,611.0,-70.0,-121.0,223.0,306.0,162.0,-667.0,-17.0,60.0,175.0,-613.0,-2701.0,-1666.0,94.0,-31.0,-30.0,-1577.0,-1938.0,-996.0,38.0,49.0,-124.0,-158.0,-1331.0,-226.0,33.0,-39.0,-144.0,182.0,-83.0,-81.0,58.0,21.0,-74.0,83.0,572.0,144.0,63.0,9.0,-15.0,331.0,762.0,233.0,47.0,7.0,25.0,244.0,681.0,323.0,30.0,-6.0,39.0,80.0,396.0,200.0,10.0,-7.0,34.0,-43.0,158.0,140.0,7.0,-11.0,17.0,-85.0,27.0,17.0,1.0,-1.0,7.0,-12.0,-26.0,-16.0,2.0,1.0,3.0,-35.0,-26.0,-22.0,0.0,9.0,-3.0,-34.0,-22.0,7.0DOWN,-31.0,-23.0,-56.0,264.0,1261.0,1471.0,-146.0,-139.0,34.0,2327.0,2316.0,548.0,-61.0,-42.0,215.0,755.0,890.0,-465.0,-65.0,25.0,169.0,-45.0,-1466.0,-1619.0,76.0,114.0,78.0,-1928.0,-3007.0,-932.0,18.0,-16.0,-104.0,-375.0,-1598.0,-173.0,31.0,-11.0,-136.0,1.0,-536.0,-214.0,47.0,20.0,-107.0,49.0,283.0,59.0,63.0,13.0,-46.0,213.0,662.0,196.0,56.0,16.0,3.0,123.0,735.0,307.0,32.0,-10.0,31.0,246.0,576.0,288.0,13.0,-15.0,45.0,-26.0,280.0,169.0,3.0,-11.0,25.0,-84.0,-1.0,5.0,7.0,-9.0,10.0,-207.0,-30.0,-53.0,6.0,2.0,5.0,40.0,38.0,-38.0,1.0,-1.0,11.0,51.0,51.0,37.0DOWN,-26.0,-1.0,-87.0,-503.0,868.0,1319.0,-106.0,-114.0,19.0,1808.0,2620.0,805.0,-107.0,11.0,183.0,1535.0,957.0,110.0,-92.0,-31.0,200.0,603.0,-838.0,-1309.0,21.0,83.0,94.0,-1746.0,-3372.0,-1140.0,68.0,-76.0,-85.0,-861.0,-1703.0,-731.0,45.0,17.0,-130.0,-63.0,-810.0,-421.0,59.0,17.0,-126.0,180.0,236.0,15.0,71.0,31.0,-51.0,145.0,713.0,304.0,61.0,12.0,-8.0,187.0,876.0,408.0,30.0,5.0,27.0,81.0,669.0,338.0,15.0,-17.0,44.0,-41.0,319.0,121.0,10.0,-7.0,37.0,-133.0,34.0,36.0,9.0,-13.0,25.0,-95.0,-2.0,8.0,-1.0,-2.0,6.0,-28.0,-18.0,13.0,-3.0,-1.0,-1.0,20.0,-13.0,-6.0DOWN,-24.0,5.0,-91.0,-222.0,758.0,1135.0,-78.0,-63.0,6.0,1705.0,2849.0,1332.0,-148.0,60.0,210.0,1752.0,546.0,405.0,-114.0,-91.0,198.0,427.0,-891.0,-1073.0,-3.0,41.0,76.0,-1677.0,-3595.0,-1775.0,98.0,-113.0,-105.0,-959.0,-1267.0,-918.0,78.0,77.0,-141.0,-244.0,-564.0,-440.0,60.0,12.0,-103.0,379.0,366.0,164.0,65.0,25.0,-41.0,110.0,699.0,327.0,52.0,-4.0,17.0,412.0,757.0,400.0,24.0,-5.0,33.0,322.0,493.0,265.0,10.0,-6.0,39.0,75.0,233.0,81.0,5.0,5.0,22.0,-181.0,5.0,-23.0,8.0,5.0,16.0,-306.0,30.0,11.0,7.0,-1.0,6.0,-141.0,24.0,13.0,4.0,6.0,2.0,-93.0,27.0,52.0DOWN,-10.0,25.0,-80.0,-150.0,654.0,1069.0,-110.0,-38.0,-21.0,1180.0,2685.0,1559.0,-130.0,-11.0,142.0,1928.0,719.0,417.0,-116.0,-107.0,186.0,262.0,-366.0,-994.0,20.0,7.0,123.0,-1089.0,-3257.0,-1971.0,93.0,-32.0,-34.0,-1133.0,-1393.0,-985.0,50.0,71.0,-120.0,-80.0,-1033.0,-439.0,49.0,24.0,-115.0,185.0,54.0,107.0,54.0,6.0,-57.0,237.0,494.0,266.0,57.0,18.0,-25.0,111.0,723.0,342.0,40.0,-7.0,17.0,245.0,659.0,295.0,24.0,-2.0,35.0,-110.0,421.0,175.0,16.0,-18.0,41.0,-23.0,134.0,71.0,8.0,-10.0,26.0,-129.0,51.0,15.0,2.0,-6.0,14.0,42.0,8.0,-18.0,-4.0,4.0,3.0,-65.0,-11.0,-11.0DOWN,-21.0,80.0,-136.0,-249.0,461.0,717.0,-79.0,-49.0,-43.0,1369.0,2556.0,1669.0,-140.0,8.0,174.0,1343.0,1093.0,424.0,-97.0,-140.0,244.0,496.0,-351.0,-747.0,-11.0,58.0,150.0,-1409.0,-3328.0,-2025.0,94.0,-42.0,-91.0,-878.0,-1861.0,-742.0,56.0,54.0,-135.0,-202.0,-899.0,-278.0,50.0,-16.0,-143.0,212.0,240.0,132.0,59.0,21.0,-60.0,126.0,729.0,221.0,59.0,5.0,2.0,226.0,875.0,281.0,38.0,8.0,38.0,195.0,707.0,312.0,18.0,-10.0,45.0,-41.0,287.0,186.0,2.0,-9.0,34.0,-65.0,-6.0,84.0,3.0,-17.0,17.0,-117.0,-108.0,-37.0,2.0,-4.0,5.0,37.0,0.0,-46.0,3.0,5.0,-1.0,-38.0,-10.0,-48.0DOWN,-59.0,-2.0,-101.0,170.0,1774.0,1401.0,-159.0,-101.0,62.0,2067.0,1981.0,442.0,-60.0,-86.0,216.0,129.0,581.0,-647.0,-34.0,14.0,204.0,1.0,-2305.0,-1634.0,87.0,54.0,6.0,-1593.0,-2678.0,-968.0,17.0,14.0,-131.0,204.0,-1560.0,-231.0,40.0,-18.0,-153.0,-96.0,-47.0,-153.0,68.0,30.0,-76.0,78.0,625.0,180.0,66.0,12.0,-12.0,218.0,834.0,307.0,57.0,0.0,31.0,236.0,755.0,352.0,25.0,-11.0,43.0,132.0,410.0,268.0,12.0,-12.0,39.0,-113.0,140.0,135.0,3.0,-13.0,18.0,-81.0,-6.0,15.0,2.0,0.0,8.0,-32.0,-3.0,-11.0,1.0,-1.0,3.0,-11.0,-2.0,-15.0,-2.0,4.0,2.0,-29.0,-33.0,-6.0DOWN,-39.0,51.0,-116.0,-254.0,668.0,944.0,-86.0,-84.0,4.0,1179.0,2172.0,1033.0,-130.0,13.0,184.0,1225.0,833.0,287.0,-77.0,-58.0,221.0,453.0,-828.0,-965.0,-5.0,66.0,94.0,-1394.0,-2994.0,-1438.0,74.0,-79.0,-97.0,-854.0,-1851.0,-961.0,54.0,9.0,-152.0,-355.0,-631.0,-401.0,70.0,23.0,-132.0,368.0,480.0,175.0,67.0,22.0,-41.0,249.0,956.0,419.0,48.0,-4.0,27.0,387.0,814.0,411.0,19.0,-13.0,48.0,-18.0,403.0,213.0,16.0,-14.0,35.0,-12.0,83.0,32.0,9.0,-9.0,19.0,-129.0,48.0,4.0,9.0,-1.0,15.0,8.0,51.0,15.0,2.0,-4.0,8.0,-34.0,29.0,-1.0,-1.0,7.0,2.0,-46.0,-30.0,-13.0DOWN,-26.0,0.0,-65.0,324.0,1899.0,1673.0,-140.0,-152.0,21.0,2580.0,1608.0,1111.0,-66.0,-57.0,223.0,180.0,463.0,-618.0,-67.0,24.0,177.0,-265.0,-2368.0,-1870.0,93.0,127.0,61.0,-2128.0,-2402.0,-1450.0,18.0,-5.0,-122.0,168.0,-1326.0,-127.0,40.0,-26.0,-137.0,30.0,-145.0,-117.0,58.0,4.0,-64.0,126.0,515.0,96.0,55.0,0.0,-9.0,491.0,686.0,276.0,42.0,6.0,22.0,122.0,571.0,314.0,11.0,-4.0,28.0,11.0,286.0,223.0,17.0,-5.0,18.0,-302.0,145.0,59.0,14.0,-6.0,16.0,76.0,155.0,-5.0,6.0,0.0,16.0,103.0,94.0,30.0,-1.0,5.0,13.0,43.0,11.0,43.0,1.0,-1.0,5.0,-60.0,-17.0,60.0DOWN,-8.0,-23.0,-84.0,287.0,1167.0,1410.0,-132.0,-20.0,-12.0,1600.0,2740.0,1015.0,-144.0,48.0,152.0,1407.0,876.0,250.0,-114.0,71.0,191.0,-325.0,-943.0,-1371.0,41.0,33.0,103.0,-1485.0,-3295.0,-1180.0,90.0,-78.0,-37.0,-1283.0,-1509.0,-681.0,55.0,-50.0,-115.0,76.0,-956.0,-266.0,46.0,-23.0,-91.0,46.0,25.0,42.0,50.0,-10.0,-56.0,345.0,375.0,155.0,50.0,9.0,-24.0,250.0,618.0,244.0,42.0,0.0,10.0,360.0,621.0,220.0,22.0,5.0,27.0,-16.0,417.0,180.0,20.0,-9.0,32.0,-88.0,231.0,53.0,8.0,-1.0,20.0,-145.0,74.0,-11.0,9.0,-1.0,13.0,-9.0,32.0,-26.0,4.0,1.0,3.0,-17.0,11.0,5.0DOWN,-42.0,9.0,-97.0,-3.0,1442.0,1369.0,-162.0,-162.0,24.0,2255.0,2180.0,523.0,-45.0,-32.0,209.0,245.0,582.0,-703.0,-55.0,2.0,212.0,104.0,-1942.0,-1525.0,101.0,102.0,77.0,-1903.0,-2978.0,-1016.0,-6.0,-24.0,-116.0,489.0,-1517.0,-131.0,38.0,-25.0,-138.0,24.0,-195.0,-282.0,55.0,46.0,-97.0,139.0,446.0,171.0,61.0,11.0,-22.0,254.0,690.0,303.0,51.0,10.0,13.0,90.0,649.0,371.0,30.0,-1.0,27.0,32.0,415.0,267.0,16.0,-7.0,25.0,-164.0,228.0,140.0,10.0,-7.0,17.0,-59.0,83.0,20.0,1.0,-6.0,14.0,-80.0,70.0,-16.0,4.0,3.0,14.0,-37.0,43.0,14.0,-1.0,0.0,8.0,-44.0,-7.0,25.0DOWN,-14.0,34.0,-115.0,230.0,951.0,784.0,-85.0,-34.0,-26.0,396.0,2133.0,1202.0,-151.0,-126.0,161.0,1240.0,1731.0,559.0,-70.0,-69.0,220.0,-432.0,-472.0,-846.0,9.0,25.0,154.0,-278.0,-2386.0,-1355.0,102.0,49.0,-31.0,-933.0,-2204.0,-974.0,27.0,19.0,-107.0,380.0,-972.0,-213.0,32.0,7.0,-132.0,84.0,-40.0,17.0,39.0,24.0,-66.0,133.0,385.0,159.0,46.0,18.0,-31.0,75.0,557.0,224.0,47.0,11.0,6.0,159.0,559.0,214.0,32.0,1.0,26.0,99.0,418.0,240.0,13.0,0.0,27.0,-86.0,227.0,212.0,2.0,-17.0,26.0,-36.0,99.0,79.0,-3.0,-8.0,19.0,-121.0,4.0,-28.0,-3.0,-4.0,10.0,-18.0,-45.0,-93.0DOWN,3.0,57.0,-110.0,-182.0,575.0,1162.0,-99.0,-69.0,-31.0,1012.0,2482.0,1796.0,-149.0,-65.0,129.0,2504.0,1503.0,413.0,-102.0,-78.0,216.0,-161.0,-165.0,-1527.0,11.0,75.0,143.0,-554.0,-2846.0,-2063.0,104.0,11.0,-12.0,-1804.0,-1953.0,-919.0,24.0,12.0,-118.0,425.0,-1035.0,59.0,41.0,-29.0,-112.0,55.0,-98.0,95.0,50.0,6.0,-47.0,28.0,267.0,182.0,50.0,2.0,-11.0,0.0,371.0,221.0,45.0,-4.0,11.0,78.0,483.0,113.0,27.0,10.0,10.0,79.0,411.0,113.0,21.0,0.0,13.0,76.0,299.0,73.0,13.0,7.0,17.0,-26.0,212.0,62.0,10.0,2.0,13.0,-64.0,114.0,59.0,3.0,5.0,11.0,-75.0,54.0,40.0DOWN,-41.0,-6.0,-56.0,-67.0,1731.0,1936.0,-165.0,-183.0,31.0,2453.0,2430.0,759.0,-104.0,6.0,224.0,399.0,666.0,-639.0,-78.0,-8.0,183.0,328.0,-1969.0,-2020.0,92.0,137.0,70.0,-2060.0,-3063.0,-1156.0,57.0,-94.0,-109.0,251.0,-1321.0,-98.0,54.0,10.0,-129.0,-115.0,-402.0,-120.0,57.0,6.0,-70.0,120.0,290.0,141.0,52.0,18.0,-27.0,-11.0,492.0,264.0,46.0,1.0,4.0,78.0,509.0,252.0,30.0,-2.0,20.0,104.0,411.0,199.0,18.0,-14.0,23.0,35.0,302.0,88.0,15.0,-1.0,16.0,-21.0,165.0,11.0,11.0,5.0,10.0,-222.0,95.0,9.0,11.0,-1.0,7.0,-61.0,15.0,9.0,7.0,-11.0,5.0,16.0,32.0,24.0DOWN,-29.0,-60.0,-27.0,10.0,1408.0,1428.0,-180.0,-100.0,-11.0,1628.0,2303.0,1005.0,-105.0,10.0,205.0,91.0,644.0,-641.0,-78.0,13.0,145.0,137.0,-1465.0,-1529.0,108.0,83.0,114.0,-1535.0,-2793.0,-1349.0,50.0,-75.0,-95.0,151.0,-1277.0,-93.0,31.0,37.0,-117.0,-109.0,-639.0,-246.0,30.0,1.0,-86.0,105.0,-51.0,27.0,51.0,15.0,-43.0,-85.0,343.0,128.0,50.0,2.0,-15.0,208.0,553.0,204.0,40.0,10.0,8.0,128.0,617.0,232.0,21.0,-1.0,26.0,73.0,429.0,165.0,11.0,-2.0,27.0,-109.0,204.0,109.0,6.0,-7.0,21.0,-49.0,31.0,32.0,5.0,-8.0,12.0,-3.0,8.0,17.0,0.0,-1.0,5.0,26.0,10.0,20.0DOWN,-76.0,163.0,0.0,-29.0,-435.0,1238.0,-170.0,-37.0,-43.0,-694.0,-443.0,1940.0,-145.0,-166.0,-103.0,-750.0,-260.0,1006.0,-6.0,-252.0,-49.0,-145.0,719.0,-1005.0,88.0,-86.0,0.0,961.0,666.0,-2717.0,78.0,69.0,51.0,758.0,853.0,-2331.0,-8.0,115.0,28.0,367.0,93.0,-1160.0,32.0,145.0,24.0,5.0,-57.0,231.0,65.0,22.0,20.0,-309.0,-318.0,777.0,64.0,-2.0,13.0,-99.0,-319.0,786.0,36.0,-35.0,2.0,-220.0,-139.0,501.0,20.0,-18.0,-5.0,87.0,-85.0,215.0,14.0,-18.0,-3.0,-123.0,-17.0,165.0,15.0,-23.0,0.0,65.0,-34.0,105.0,7.0,-11.0,2.0,0.0,-10.0,30.0,4.0,-7.0,2.0,-21.0,-34.0,14.0DOWN,-97.0,112.0,11.0,-279.0,-716.0,1446.0,-163.0,-98.0,-30.0,-428.0,-576.0,2055.0,-58.0,-192.0,-85.0,-404.0,180.0,98.0,8.0,-209.0,-40.0,176.0,1024.0,-1651.0,94.0,-26.0,1.0,464.0,1027.0,-2927.0,12.0,86.0,36.0,34.0,589.0,-1522.0,5.0,119.0,29.0,290.0,91.0,-674.0,32.0,117.0,16.0,0.0,-176.0,242.0,66.0,28.0,17.0,-210.0,-334.0,634.0,62.0,-10.0,1.0,-153.0,-351.0,604.0,37.0,-29.0,-5.0,-114.0,-121.0,362.0,27.0,-12.0,-3.0,32.0,-32.0,265.0,18.0,-16.0,0.0,41.0,-9.0,204.0,17.0,-8.0,4.0,3.0,-18.0,174.0,5.0,-14.0,0.0,30.0,-106.0,64.0,7.0,-5.0,3.0,-74.0,-14.0,37.0DOWN,-67.0,143.0,-1.0,-104.0,-306.0,1728.0,-175.0,-116.0,-46.0,-998.0,-866.0,2478.0,-56.0,-197.0,-81.0,-643.0,38.0,330.0,-9.0,-244.0,-17.0,50.0,512.0,-2053.0,108.0,36.0,31.0,1272.0,1057.0,-3339.0,20.0,100.0,32.0,70.0,313.0,-1485.0,-7.0,109.0,11.0,-112.0,139.0,-518.0,37.0,66.0,10.0,-386.0,108.0,211.0,61.0,14.0,11.0,-56.0,-96.0,446.0,58.0,-3.0,7.0,184.0,-223.0,506.0,35.0,-1.0,-1.0,214.0,-198.0,433.0,22.0,-2.0,1.0,98.0,-117.0,341.0,12.0,-5.0,1.0,-48.0,-57.0,266.0,12.0,-5.0,0.0,-204.0,-44.0,184.0,13.0,-18.0,3.0,-111.0,-55.0,105.0,10.0,-15.0,-3.0,0.0,-77.0,38.0DOWN,-90.0,122.0,6.0,659.0,-303.0,1014.0,-148.0,57.0,-38.0,-1156.0,-525.0,2427.0,-141.0,-168.0,-63.0,-260.0,-318.0,1151.0,4.0,-215.0,-22.0,-881.0,483.0,-625.0,63.0,-169.0,22.0,1007.0,675.0,-2933.0,89.0,57.0,23.0,133.0,577.0,-2113.0,-8.0,91.0,-5.0,127.0,93.0,-1283.0,17.0,109.0,0.0,168.0,179.0,-299.0,38.0,41.0,13.0,-81.0,-21.0,198.0,58.0,27.0,16.0,107.0,-161.0,452.0,47.0,-2.0,11.0,55.0,-237.0,553.0,37.0,14.0,8.0,2.0,-82.0,482.0,26.0,-6.0,7.0,-9.0,-70.0,406.0,21.0,-10.0,8.0,-114.0,-64.0,235.0,15.0,-19.0,3.0,-172.0,-77.0,157.0,12.0,-21.0,1.0,-51.0,-51.0,69.0DOWN,-100.0,134.0,-6.0,932.0,-562.0,1057.0,-160.0,83.0,-50.0,-1550.0,-490.0,2495.0,-158.0,-132.0,-87.0,325.0,-204.0,1470.0,-8.0,-226.0,-15.0,-1137.0,707.0,-456.0,62.0,-190.0,40.0,1608.0,544.0,-2886.0,91.0,19.0,44.0,-344.0,369.0,-2385.0,-1.0,93.0,0.0,178.0,99.0,-1566.0,16.0,112.0,-5.0,-12.0,253.0,-435.0,46.0,72.0,7.0,-63.0,46.0,273.0,67.0,25.0,18.0,80.0,-101.0,568.0,57.0,2.0,17.0,181.0,-245.0,658.0,33.0,-12.0,7.0,-12.0,-136.0,502.0,23.0,-8.0,0.0,-67.0,-115.0,399.0,17.0,-21.0,-4.0,-268.0,-19.0,251.0,15.0,-21.0,-2.0,-92.0,-5.0,119.0,10.0,-24.0,1.0,17.0,-41.0,34.0DOWN,-81.0,82.0,-16.0,579.0,-374.0,1036.0,-105.0,-3.0,-35.0,-660.0,-258.0,2699.0,-133.0,-179.0,1.0,-355.0,-198.0,1816.0,-14.0,-187.0,4.0,-854.0,570.0,-436.0,10.0,-129.0,20.0,590.0,417.0,-3102.0,72.0,53.0,-34.0,141.0,529.0,-2762.0,1.0,89.0,-2.0,266.0,-36.0,-1340.0,21.0,103.0,-1.0,25.0,56.0,-306.0,26.0,56.0,-5.0,-177.0,18.0,143.0,52.0,29.0,12.0,132.0,-93.0,323.0,60.0,15.0,10.0,43.0,-183.0,529.0,48.0,8.0,8.0,93.0,-184.0,561.0,32.0,-9.0,1.0,-119.0,-141.0,554.0,14.0,-22.0,-2.0,-143.0,-53.0,357.0,6.0,-29.0,-2.0,-69.0,-21.0,144.0,5.0,-21.0,0.0,4.0,32.0,23.0DOWN,-96.0,49.0,-28.0,-23.0,-165.0,2153.0,-167.0,-131.0,-17.0,-1958.0,-598.0,3179.0,-119.0,-227.0,-90.0,-267.0,18.0,882.0,20.0,-146.0,26.0,-474.0,398.0,-1657.0,95.0,-8.0,10.0,1889.0,661.0,-3489.0,68.0,74.0,34.0,-879.0,320.0,-1452.0,-17.0,87.0,-6.0,463.0,-102.0,-1113.0,-1.0,107.0,-20.0,-295.0,186.0,-261.0,27.0,27.0,-5.0,-3.0,153.0,24.0,50.0,10.0,7.0,118.0,81.0,157.0,58.0,5.0,13.0,353.0,-102.0,282.0,49.0,23.0,14.0,235.0,-219.0,430.0,33.0,28.0,4.0,150.0,-261.0,554.0,26.0,-7.0,14.0,-438.0,-126.0,559.0,15.0,-39.0,7.0,-185.0,-99.0,286.0,9.0,-38.0,2.0,-310.0,-30.0,103.0DOWN,-95.0,9.0,-25.0,-328.0,-320.0,2351.0,-136.0,-147.0,1.0,-610.0,-326.0,2552.0,-54.0,-159.0,-62.0,-948.0,139.0,343.0,15.0,-128.0,15.0,110.0,358.0,-2274.0,88.0,38.0,-22.0,701.0,495.0,-3128.0,7.0,43.0,18.0,15.0,241.0,-1486.0,-10.0,93.0,-10.0,249.0,224.0,-826.0,6.0,63.0,-6.0,-149.0,147.0,-208.0,41.0,21.0,6.0,11.0,21.0,157.0,56.0,14.0,10.0,235.0,-74.0,345.0,49.0,7.0,9.0,91.0,-154.0,487.0,35.0,7.0,7.0,157.0,-190.0,425.0,24.0,-4.0,1.0,-286.0,-146.0,376.0,25.0,-13.0,2.0,-126.0,-62.0,289.0,19.0,-25.0,0.0,-81.0,-32.0,219.0,13.0,-12.0,-4.0,39.0,-44.0,108.0DOWN,-59.0,121.0,7.0,473.0,-298.0,1873.0,-169.0,-90.0,-19.0,-1475.0,-532.0,3029.0,-115.0,-196.0,-92.0,-549.0,-245.0,660.0,-34.0,-217.0,-24.0,-855.0,464.0,-1584.0,92.0,-44.0,-2.0,1429.0,803.0,-3624.0,47.0,74.0,37.0,-177.0,759.0,-1869.0,-3.0,102.0,5.0,528.0,265.0,-1245.0,33.0,124.0,6.0,69.0,-25.0,-64.0,64.0,41.0,16.0,-160.0,-308.0,455.0,62.0,13.0,4.0,-38.0,-402.0,653.0,44.0,-6.0,-1.0,-168.0,-193.0,568.0,36.0,0.0,2.0,202.0,-49.0,450.0,23.0,-14.0,3.0,-33.0,-63.0,381.0,21.0,-16.0,0.0,-87.0,-75.0,269.0,11.0,-26.0,-3.0,-31.0,-67.0,118.0,9.0,-16.0,-3.0,-79.0,-24.0,39.0DOWN,-69.0,77.0,-19.0,494.0,-122.0,2044.0,-167.0,-127.0,12.0,-1201.0,-311.0,2710.0,-90.0,-195.0,-84.0,-1094.0,15.0,285.0,-23.0,-182.0,7.0,-808.0,248.0,-2031.0,101.0,37.0,-28.0,1340.0,542.0,-3451.0,33.0,85.0,27.0,19.0,505.0,-1479.0,1.0,96.0,-1.0,392.0,304.0,-933.0,10.0,66.0,-5.0,-135.0,188.0,-97.0,50.0,39.0,14.0,162.0,-83.0,224.0,62.0,17.0,16.0,86.0,-294.0,533.0,54.0,6.0,10.0,-110.0,-300.0,613.0,32.0,-9.0,2.0,-18.0,-231.0,529.0,22.0,-15.0,-2.0,-167.0,-96.0,338.0,21.0,-16.0,0.0,-47.0,-14.0,211.0,16.0,-24.0,1.0,-7.0,-34.0,137.0,6.0,-12.0,-5.0,-15.0,-58.0,83.0DOWN,-89.0,89.0,-16.0,1035.0,-490.0,1376.0,-177.0,-26.0,-41.0,-1733.0,-554.0,2855.0,-141.0,-178.0,-78.0,224.0,-140.0,679.0,10.0,-186.0,39.0,-1557.0,669.0,-939.0,87.0,-92.0,40.0,1806.0,701.0,-3452.0,74.0,74.0,33.0,-959.0,505.0,-1787.0,-24.0,83.0,-34.0,492.0,181.0,-1470.0,16.0,120.0,-11.0,29.0,182.0,-303.0,48.0,48.0,6.0,140.0,-126.0,290.0,61.0,38.0,10.0,43.0,-263.0,600.0,57.0,-3.0,8.0,-32.0,-189.0,665.0,38.0,-16.0,4.0,36.0,-64.0,448.0,35.0,-15.0,-1.0,-26.0,-46.0,332.0,28.0,-23.0,2.0,-105.0,-36.0,207.0,22.0,-13.0,2.0,7.0,-52.0,170.0,9.0,-17.0,0.0,-2.0,-82.0,117.0DOWN,-159.0,51.0,1.0,-1859.0,-186.0,2897.0,-140.0,-152.0,-67.0,-275.0,16.0,752.0,-21.0,-258.0,24.0,-1457.0,515.0,-863.0,83.0,-160.0,-2.0,1782.0,235.0,-3583.0,61.0,58.0,27.0,-452.0,390.0,-2054.0,7.0,91.0,-14.0,288.0,144.0,-1326.0,-1.0,120.0,-11.0,118.0,231.0,-291.0,47.0,71.0,8.0,9.0,-104.0,402.0,68.0,35.0,12.0,-7.0,-243.0,720.0,58.0,4.0,4.0,-122.0,-148.0,697.0,52.0,-25.0,0.0,-5.0,-59.0,531.0,35.0,-28.0,-3.0,7.0,-93.0,377.0,24.0,-31.0,-4.0,-5.0,-139.0,235.0,8.0,-18.0,-10.0,74.0,-113.0,114.0,0.0,-14.0,-8.0,-22.0,-37.0,11.0,-2.0,-10.0,-3.0,31.0,36.0,-29.0DOWN,-84.0,156.0,8.0,-202.0,-599.0,2049.0,-176.0,-142.0,-33.0,-696.0,-724.0,2846.0,-121.0,-205.0,-102.0,-873.0,123.0,461.0,0.0,-257.0,-3.0,-44.0,765.0,-2032.0,87.0,21.0,10.0,859.0,759.0,-3734.0,54.0,90.0,43.0,-87.0,393.0,-1968.0,-8.0,93.0,-11.0,588.0,145.0,-946.0,41.0,124.0,2.0,-146.0,60.0,200.0,64.0,68.0,16.0,29.0,-348.0,832.0,72.0,29.0,16.0,-352.0,-318.0,1029.0,45.0,-45.0,7.0,-181.0,-170.0,806.0,31.0,-65.0,0.0,115.0,-50.0,333.0,15.0,-35.0,-8.0,-33.0,-53.0,79.0,12.0,-14.0,-1.0,12.0,-20.0,-8.0,4.0,-8.0,-2.0,-36.0,11.0,9.0,-3.0,-2.0,-3.0,15.0,24.0,-36.0DOWN,-58.0,194.0,8.0,-211.0,-429.0,2041.0,-186.0,-68.0,-30.0,-777.0,-650.0,2818.0,-149.0,-192.0,-60.0,-734.0,-22.0,878.0,-41.0,-281.0,0.0,-73.0,433.0,-1365.0,95.0,-59.0,29.0,652.0,756.0,-3190.0,68.0,62.0,16.0,-95.0,518.0,-2103.0,-6.0,79.0,-17.0,285.0,304.0,-1527.0,14.0,116.0,-9.0,159.0,200.0,-365.0,52.0,48.0,10.0,197.0,-149.0,258.0,69.0,50.0,10.0,-28.0,-246.0,603.0,66.0,4.0,17.0,64.0,-192.0,698.0,52.0,5.0,10.0,-119.0,-80.0,624.0,37.0,-17.0,8.0,-92.0,-106.0,525.0,22.0,-33.0,-1.0,-135.0,-132.0,310.0,20.0,-22.0,-1.0,-23.0,-84.0,170.0,7.0,-25.0,1.0,50.0,-69.0,43.0DOWN,-81.0,133.0,9.0,132.0,-316.0,2174.0,-171.0,-98.0,-17.0,-1018.0,-510.0,3172.0,-97.0,-212.0,-54.0,19.0,-56.0,753.0,-9.0,-230.0,1.0,-371.0,525.0,-1731.0,102.0,-37.0,14.0,1033.0,581.0,-3612.0,36.0,68.0,12.0,-464.0,343.0,-1993.0,-9.0,78.0,-25.0,238.0,116.0,-1304.0,9.0,118.0,-13.0,171.0,184.0,-246.0,43.0,54.0,12.0,125.0,-38.0,287.0,58.0,59.0,14.0,45.0,-237.0,639.0,58.0,5.0,8.0,-154.0,-160.0,727.0,54.0,-12.0,5.0,-15.0,-100.0,677.0,33.0,-49.0,3.0,-7.0,-47.0,425.0,22.0,-35.0,3.0,-59.0,-65.0,184.0,10.0,-23.0,-1.0,-35.0,-48.0,44.0,-1.0,-7.0,-5.0,-25.0,-13.0,-1.0DOWN,-79.0,98.0,-17.0,923.0,-163.0,1275.0,-167.0,-5.0,-22.0,-1781.0,-244.0,3487.0,-70.0,-153.0,-67.0,80.0,130.0,659.0,-4.0,-213.0,15.0,-1192.0,338.0,-1223.0,96.0,-124.0,6.0,2001.0,424.0,-4347.0,22.0,49.0,33.0,-765.0,415.0,-1933.0,-12.0,98.0,-12.0,573.0,148.0,-1083.0,20.0,111.0,1.0,-212.0,207.0,-56.0,48.0,58.0,9.0,259.0,-217.0,409.0,64.0,26.0,13.0,-169.0,-146.0,702.0,57.0,1.0,5.0,51.0,-160.0,731.0,45.0,-26.0,4.0,-25.0,-46.0,611.0,31.0,-28.0,1.0,-36.0,-96.0,373.0,14.0,-39.0,3.0,-65.0,-90.0,149.0,5.0,-17.0,-1.0,-86.0,-59.0,51.0,3.0,-14.0,-1.0,-25.0,-9.0,-1.0DOWN,-43.0,125.0,12.0,58.0,-290.0,2331.0,-149.0,-84.0,-18.0,-434.0,-395.0,2535.0,-86.0,-215.0,-41.0,-884.0,139.0,543.0,-54.0,-222.0,-3.0,-230.0,342.0,-2262.0,101.0,-26.0,14.0,633.0,428.0,-3099.0,25.0,78.0,-5.0,-197.0,251.0,-1823.0,13.0,99.0,-22.0,232.0,281.0,-947.0,6.0,50.0,-16.0,-8.0,180.0,-128.0,52.0,35.0,14.0,275.0,-16.0,292.0,44.0,26.0,6.0,266.0,-281.0,510.0,50.0,37.0,13.0,-164.0,-138.0,563.0,32.0,2.0,6.0,-13.0,-100.0,488.0,36.0,-21.0,5.0,-200.0,-28.0,372.0,36.0,-20.0,5.0,34.0,-43.0,304.0,23.0,-29.0,3.0,62.0,-149.0,207.0,10.0,-22.0,0.0,-78.0,-36.0,137.0DOWN,-80.0,157.0,-4.0,295.0,-362.0,1684.0,-172.0,-67.0,-12.0,-888.0,-503.0,2824.0,-87.0,-191.0,-45.0,-521.0,38.0,961.0,4.0,-254.0,22.0,-307.0,491.0,-1569.0,107.0,-59.0,14.0,996.0,530.0,-3550.0,47.0,71.0,22.0,98.0,229.0,-2189.0,-8.0,110.0,-25.0,159.0,-3.0,-963.0,21.0,124.0,-8.0,-145.0,73.0,167.0,52.0,57.0,13.0,86.0,-89.0,683.0,53.0,8.0,12.0,-179.0,-45.0,779.0,48.0,-17.0,6.0,53.0,-62.0,587.0,36.0,-33.0,3.0,-73.0,-60.0,335.0,22.0,-27.0,-2.0,20.0,-87.0,139.0,15.0,-13.0,-2.0,-60.0,-4.0,83.0,8.0,-8.0,-4.0,6.0,-11.0,63.0,6.0,-6.0,-1.0,44.0,-2.0,42.0DOWN,-114.0,92.0,-39.0,-1153.0,-712.0,2071.0,-129.0,-136.0,-95.0,652.0,-605.0,1628.0,-7.0,-241.0,-81.0,48.0,508.0,-223.0,45.0,-193.0,-9.0,1333.0,954.0,-2758.0,59.0,58.0,42.0,-406.0,1083.0,-2716.0,-12.0,109.0,54.0,117.0,404.0,-1392.0,7.0,139.0,40.0,319.0,7.0,36.0,60.0,90.0,36.0,-224.0,-272.0,818.0,64.0,18.0,19.0,-203.0,-340.0,880.0,57.0,-36.0,7.0,-432.0,-225.0,669.0,39.0,-41.0,-5.0,78.0,-144.0,315.0,26.0,-41.0,-7.0,-55.0,-58.0,196.0,11.0,-17.0,-7.0,44.0,-19.0,97.0,2.0,-22.0,0.0,3.0,-28.0,23.0,-5.0,4.0,-4.0,-53.0,-26.0,-18.0,-2.0,1.0,-2.0,21.0,-11.0,-14.0DOWN,-100.0,29.0,24.0,-135.0,931.0,1771.0,-130.0,-42.0,54.0,-447.0,446.0,563.0,-32.0,-188.0,149.0,-945.0,-118.0,-709.0,19.0,-49.0,73.0,-498.0,-1340.0,-2017.0,98.0,-24.0,13.0,-634.0,-1057.0,-1160.0,6.0,92.0,-115.0,-262.0,-757.0,-639.0,25.0,30.0,-77.0,80.0,89.0,-317.0,21.0,21.0,-46.0,113.0,195.0,-7.0,50.0,-7.0,-4.0,270.0,257.0,183.0,41.0,-3.0,-2.0,351.0,219.0,296.0,34.0,-3.0,9.0,302.0,227.0,340.0,14.0,0.0,7.0,155.0,60.0,293.0,14.0,3.0,8.0,-77.0,24.0,256.0,4.0,-7.0,3.0,-30.0,-41.0,158.0,6.0,-6.0,2.0,-73.0,36.0,114.0,4.0,-8.0,4.0,-37.0,-18.0,21.0DOWN,-51.0,-55.0,21.0,-594.0,1185.0,2894.0,-153.0,-156.0,-14.0,1953.0,652.0,-104.0,-7.0,-224.0,112.0,-698.0,755.0,-878.0,-9.0,-29.0,15.0,613.0,-1373.0,-3472.0,139.0,64.0,41.0,-1676.0,-712.0,-660.0,-13.0,63.0,-70.0,983.0,-523.0,-445.0,3.0,65.0,-61.0,162.0,13.0,-117.0,15.0,55.0,-17.0,216.0,80.0,123.0,37.0,59.0,-7.0,-71.0,61.0,367.0,50.0,36.0,12.0,-30.0,135.0,518.0,30.0,18.0,6.0,-118.0,135.0,502.0,28.0,-10.0,15.0,-232.0,70.0,366.0,15.0,-23.0,15.0,-241.0,80.0,235.0,6.0,-41.0,14.0,-40.0,84.0,109.0,3.0,-18.0,15.0,-4.0,46.0,22.0,-3.0,-18.0,5.0,62.0,-29.0,-22.0DOWN,-41.0,-51.0,4.0,-329.0,1125.0,2541.0,-115.0,-171.0,82.0,1914.0,859.0,893.0,-47.0,-215.0,129.0,-767.0,514.0,-621.0,-32.0,-74.0,32.0,663.0,-1153.0,-3009.0,80.0,63.0,-30.0,-1211.0,-867.0,-1792.0,-2.0,102.0,-81.0,1150.0,-515.0,-828.0,26.0,91.0,-58.0,-302.0,-24.0,-122.0,26.0,39.0,-29.0,13.0,162.0,213.0,35.0,15.0,-9.0,-146.0,153.0,285.0,45.0,3.0,5.0,187.0,225.0,341.0,40.0,8.0,9.0,5.0,240.0,371.0,32.0,-11.0,19.0,141.0,136.0,351.0,19.0,-23.0,15.0,-73.0,49.0,250.0,7.0,-15.0,5.0,-28.0,-38.0,124.0,3.0,-13.0,4.0,-47.0,-29.0,77.0,-1.0,-3.0,1.0,18.0,-57.0,19.0DOWN,-77.0,73.0,-41.0,-483.0,-121.0,1385.0,-129.0,-103.0,2.0,-238.0,253.0,2194.0,-109.0,-194.0,10.0,-539.0,315.0,521.0,2.0,-178.0,64.0,638.0,251.0,-1527.0,59.0,-14.0,8.0,146.0,-199.0,-3032.0,64.0,78.0,-8.0,658.0,-134.0,-1869.0,-1.0,98.0,-42.0,57.0,-146.0,-733.0,26.0,94.0,-23.0,414.0,3.0,127.0,45.0,36.0,1.0,-147.0,22.0,522.0,39.0,27.0,4.0,73.0,-34.0,573.0,35.0,0.0,19.0,-236.0,60.0,491.0,24.0,-2.0,17.0,-237.0,7.0,394.0,21.0,-29.0,16.0,-192.0,26.0,283.0,12.0,-20.0,7.0,-52.0,-2.0,136.0,6.0,-23.0,5.0,110.0,15.0,36.0,1.0,3.0,3.0,33.0,41.0,2.0DOWN,-34.0,92.0,-39.0,-315.0,265.0,1272.0,-97.0,-22.0,-5.0,-198.0,475.0,1764.0,-95.0,-184.0,32.0,-115.0,281.0,788.0,-33.0,-197.0,81.0,60.0,-71.0,-1032.0,31.0,-102.0,44.0,275.0,-628.0,-2424.0,46.0,29.0,5.0,92.0,-481.0,-2058.0,-11.0,93.0,-62.0,420.0,-345.0,-1315.0,27.0,121.0,-59.0,245.0,16.0,-100.0,64.0,79.0,-24.0,-47.0,63.0,544.0,53.0,43.0,-8.0,-205.0,61.0,792.0,44.0,0.0,9.0,-201.0,206.0,649.0,36.0,-29.0,17.0,4.0,187.0,437.0,33.0,-34.0,20.0,50.0,137.0,311.0,20.0,-30.0,12.0,-103.0,2.0,213.0,7.0,-24.0,4.0,88.0,-31.0,104.0,-5.0,-15.0,1.0,11.0,-59.0,9.0DOWN,-47.0,129.0,-38.0,-59.0,227.0,1397.0,-119.0,-36.0,1.0,-12.0,516.0,2127.0,-110.0,-200.0,48.0,-185.0,312.0,757.0,-14.0,-221.0,85.0,-79.0,-99.0,-1489.0,65.0,-60.0,25.0,137.0,-698.0,-2782.0,78.0,72.0,-20.0,333.0,-458.0,-1845.0,-10.0,101.0,-62.0,171.0,-286.0,-752.0,25.0,87.0,-30.0,98.0,94.0,78.0,45.0,57.0,-10.0,-20.0,40.0,501.0,44.0,33.0,3.0,109.0,60.0,666.0,41.0,16.0,7.0,-208.0,86.0,664.0,27.0,-25.0,12.0,-64.0,123.0,439.0,23.0,-37.0,14.0,-118.0,112.0,234.0,10.0,-35.0,8.0,-12.0,72.0,95.0,6.0,-19.0,5.0,-44.0,42.0,16.0,1.0,-11.0,1.0,-35.0,2.0,-2.0DOWN,-69.0,85.0,-40.0,-1030.0,595.0,2270.0,-137.0,-139.0,14.0,650.0,472.0,1480.0,-34.0,-238.0,82.0,-1293.0,391.0,324.0,4.0,-179.0,62.0,1222.0,-639.0,-2582.0,85.0,42.0,-1.0,-424.0,-608.0,-2205.0,-12.0,90.0,-65.0,1027.0,-362.0,-1622.0,16.0,110.0,-40.0,-25.0,-2.0,-500.0,43.0,89.0,-18.0,-149.0,95.0,268.0,62.0,36.0,8.0,65.0,26.0,677.0,42.0,8.0,5.0,-62.0,71.0,752.0,28.0,-13.0,8.0,8.0,106.0,613.0,20.0,-30.0,12.0,-172.0,104.0,348.0,19.0,-27.0,15.0,-74.0,8.0,144.0,12.0,-25.0,13.0,4.0,-32.0,-3.0,8.0,-4.0,3.0,-80.0,-38.0,3.0,-1.0,-3.0,-2.0,16.0,-19.0,-3.0DOWN,-73.0,115.0,-25.0,270.0,-79.0,1296.0,-170.0,16.0,-33.0,-613.0,466.0,2450.0,-97.0,-149.0,3.0,430.0,334.0,882.0,-4.0,-215.0,82.0,-273.0,275.0,-1107.0,100.0,-134.0,70.0,565.0,-591.0,-3007.0,40.0,35.0,5.0,-298.0,-413.0,-2042.0,-10.0,94.0,-72.0,36.0,-278.0,-1242.0,16.0,117.0,-42.0,163.0,95.0,-306.0,50.0,46.0,-6.0,47.0,64.0,340.0,70.0,9.0,13.0,95.0,110.0,705.0,48.0,-10.0,2.0,20.0,24.0,656.0,36.0,-1.0,1.0,-7.0,70.0,451.0,18.0,5.0,-3.0,-25.0,-1.0,266.0,20.0,-7.0,10.0,-36.0,50.0,178.0,16.0,-9.0,10.0,-76.0,12.0,163.0,14.0,-13.0,8.0,-24.0,3.0,132.0DOWN,-37.0,95.0,-32.0,225.0,43.0,1218.0,-99.0,-21.0,7.0,-1257.0,967.0,2766.0,-162.0,-185.0,-1.0,-179.0,469.0,1259.0,-61.0,-189.0,70.0,-858.0,269.0,-645.0,29.0,-54.0,32.0,933.0,-747.0,-2668.0,106.0,23.0,29.0,-224.0,-413.0,-1643.0,6.0,79.0,-38.0,539.0,-429.0,-1351.0,7.0,55.0,-45.0,-61.0,-182.0,-772.0,21.0,72.0,-44.0,-1.0,134.0,-271.0,44.0,27.0,-9.0,126.0,81.0,190.0,55.0,12.0,0.0,-65.0,52.0,398.0,52.0,7.0,4.0,236.0,-29.0,526.0,37.0,4.0,2.0,-13.0,28.0,514.0,19.0,5.0,3.0,100.0,17.0,396.0,14.0,-11.0,7.0,-124.0,39.0,293.0,14.0,-11.0,7.0,-73.0,17.0,170.0DOWN,-40.0,137.0,-24.0,209.0,-366.0,379.0,-52.0,22.0,6.0,-662.0,631.0,2486.0,-141.0,-59.0,0.0,1246.0,276.0,1203.0,-57.0,-174.0,29.0,-902.0,579.0,225.0,-25.0,-128.0,11.0,781.0,-428.0,-2386.0,101.0,-60.0,47.0,-1245.0,-9.0,-1519.0,4.0,-8.0,-10.0,932.0,-330.0,-1283.0,2.0,64.0,-18.0,50.0,-281.0,-877.0,2.0,49.0,-40.0,310.0,-145.0,-302.0,44.0,84.0,-13.0,-3.0,-32.0,142.0,44.0,48.0,-1.0,-126.0,34.0,496.0,48.0,32.0,9.0,-214.0,54.0,523.0,37.0,-9.0,10.0,-313.0,119.0,428.0,32.0,-9.0,8.0,8.0,93.0,322.0,23.0,-28.0,16.0,127.0,62.0,201.0,22.0,-14.0,12.0,-59.0,40.0,163.0DOWN,-103.0,22.0,-14.0,-802.0,712.0,2358.0,-144.0,-151.0,30.0,582.0,340.0,1477.0,-54.0,-213.0,52.0,-633.0,315.0,-669.0,54.0,-160.0,73.0,723.0,-522.0,-2788.0,107.0,43.0,-11.0,-441.0,-291.0,-2389.0,-7.0,87.0,-55.0,142.0,-511.0,-1106.0,8.0,100.0,-56.0,270.0,-72.0,-329.0,37.0,80.0,-20.0,-176.0,15.0,301.0,53.0,38.0,-2.0,-25.0,83.0,601.0,43.0,24.0,5.0,38.0,153.0,664.0,28.0,-15.0,11.0,-1.0,177.0,565.0,22.0,-24.0,13.0,-34.0,79.0,312.0,22.0,-35.0,14.0,-127.0,2.0,164.0,11.0,-18.0,9.0,38.0,-65.0,46.0,0.0,-12.0,-1.0,-36.0,-44.0,35.0,-3.0,3.0,-5.0,76.0,-23.0,-9.0DOWN,-31.0,153.0,-14.0,535.0,-128.0,930.0,-112.0,8.0,-29.0,-1288.0,499.0,2846.0,-140.0,-166.0,-3.0,504.0,182.0,1591.0,-41.0,-251.0,62.0,-480.0,450.0,-545.0,47.0,-130.0,84.0,1217.0,-565.0,-3182.0,104.0,38.0,26.0,-637.0,-269.0,-2441.0,-22.0,77.0,-51.0,100.0,-418.0,-1301.0,8.0,109.0,-53.0,192.0,-51.0,-461.0,32.0,80.0,-22.0,-133.0,46.0,279.0,52.0,45.0,-2.0,197.0,-9.0,652.0,42.0,26.0,1.0,27.0,124.0,707.0,35.0,10.0,7.0,68.0,93.0,473.0,27.0,-15.0,7.0,-258.0,135.0,301.0,29.0,-32.0,10.0,-106.0,69.0,210.0,17.0,-39.0,12.0,57.0,28.0,151.0,7.0,-20.0,5.0,-55.0,-5.0,106.0DOWN,-34.0,113.0,-17.0,596.0,319.0,1725.0,-140.0,-110.0,63.0,677.0,763.0,2343.0,-49.0,-140.0,53.0,-865.0,336.0,325.0,-38.0,-219.0,84.0,-202.0,-282.0,-1992.0,89.0,19.0,-17.0,-651.0,-985.0,-3109.0,11.0,15.0,-36.0,702.0,-546.0,-1495.0,5.0,114.0,-71.0,-192.0,-192.0,-580.0,22.0,91.0,-48.0,215.0,112.0,172.0,51.0,46.0,-14.0,-172.0,195.0,472.0,57.0,12.0,1.0,91.0,147.0,598.0,49.0,1.0,4.0,-11.0,190.0,551.0,44.0,-11.0,9.0,38.0,87.0,541.0,22.0,-38.0,11.0,-24.0,24.0,336.0,14.0,-39.0,11.0,-79.0,15.0,179.0,-3.0,-28.0,6.0,56.0,-31.0,-9.0,-4.0,2.0,-2.0,-97.0,7.0,-4.0DOWN,-65.0,119.0,-31.0,102.0,64.0,1614.0,-149.0,-103.0,14.0,-376.0,440.0,2752.0,-65.0,-213.0,10.0,-172.0,211.0,735.0,-13.0,-222.0,77.0,55.0,177.0,-1571.0,81.0,-27.0,18.0,275.0,-467.0,-3517.0,19.0,59.0,-5.0,92.0,-195.0,-2100.0,-5.0,111.0,-62.0,48.0,-308.0,-1041.0,17.0,134.0,-46.0,144.0,38.0,93.0,59.0,71.0,-3.0,-219.0,82.0,653.0,64.0,17.0,5.0,-193.0,109.0,778.0,61.0,-29.0,16.0,22.0,90.0,585.0,43.0,-25.0,10.0,180.0,6.0,427.0,24.0,-24.0,5.0,68.0,-37.0,320.0,14.0,-11.0,0.0,-68.0,-39.0,204.0,2.0,-17.0,-2.0,7.0,-31.0,69.0,3.0,-15.0,3.0,-54.0,-2.0,-3.0DOWN,-74.0,41.0,4.0,127.0,630.0,2524.0,-177.0,-94.0,38.0,840.0,754.0,2807.0,-127.0,-123.0,-2.0,80.0,403.0,510.0,-65.0,-156.0,64.0,-262.0,-210.0,-2312.0,84.0,-34.0,34.0,-707.0,-774.0,-3388.0,42.0,-63.0,63.0,-701.0,-499.0,-1924.0,26.0,101.0,-52.0,-91.0,-647.0,-1150.0,27.0,96.0,-95.0,-1150.0,-205.0,-488.0,45.0,33.0,-65.0,-697.0,216.0,88.0,61.0,17.0,-44.0,-237.0,384.0,457.0,60.0,-46.0,11.0,1235.0,561.0,592.0,54.0,28.0,1.0,1041.0,343.0,547.0,41.0,-27.0,14.0,691.0,1.0,463.0,21.0,20.0,2.0,-89.0,-99.0,342.0,8.0,-15.0,13.0,-293.0,-176.0,229.0,-2.0,-3.0,3.0,-171.0,-92.0,52.0DOWN,-51.0,135.0,-13.0,1724.0,719.0,1068.0,-129.0,-38.0,15.0,-1149.0,1401.0,2108.0,-187.0,-74.0,4.0,298.0,1518.0,1014.0,-134.0,20.0,148.0,-2679.0,-383.0,-1611.0,1.0,0.0,150.0,-240.0,-1532.0,-2467.0,73.0,58.0,93.0,-2259.0,-2700.0,-1590.0,59.0,-170.0,-53.0,312.0,-1154.0,70.0,36.0,38.0,-112.0,-19.0,-858.0,-342.0,37.0,-76.0,-91.0,-446.0,-93.0,-596.0,56.0,30.0,-63.0,349.0,181.0,-173.0,58.0,-1.0,-34.0,-45.0,585.0,81.0,65.0,3.0,7.0,703.0,534.0,476.0,54.0,1.0,-2.0,-49.0,446.0,410.0,45.0,-24.0,14.0,591.0,211.0,466.0,18.0,-12.0,0.0,-10.0,127.0,384.0,14.0,-13.0,4.0,115.0,107.0,294.0DOWN,-126.0,33.0,-56.0,107.0,67.0,1859.0,-119.0,-159.0,50.0,3477.0,921.0,3347.0,-137.0,13.0,-165.0,2654.0,209.0,888.0,39.0,-95.0,219.0,-2093.0,1234.0,-2517.0,-26.0,111.0,16.0,-2737.0,-934.0,-3739.0,82.0,-66.0,236.0,-3463.0,-634.0,-2250.0,-29.0,23.0,-135.0,1839.0,-1733.0,-152.0,65.0,0.0,-40.0,-566.0,-325.0,-792.0,27.0,-29.0,-63.0,115.0,327.0,-407.0,64.0,28.0,-17.0,184.0,430.0,77.0,65.0,-18.0,-5.0,336.0,499.0,350.0,66.0,22.0,4.0,479.0,344.0,557.0,52.0,13.0,-7.0,223.0,179.0,560.0,41.0,29.0,-4.0,95.0,172.0,565.0,23.0,-8.0,8.0,39.0,170.0,568.0,14.0,-28.0,11.0,100.0,29.0,298.0DOWN,-62.0,122.0,-76.0,-74.0,-826.0,996.0,-60.0,-149.0,86.0,1959.0,934.0,3231.0,-150.0,-134.0,-59.0,4916.0,1488.0,974.0,81.0,112.0,170.0,-3091.0,1375.0,-882.0,-49.0,0.0,-23.0,-265.0,-692.0,-3393.0,100.0,151.0,140.0,-6019.0,-1484.0,-1738.0,-136.0,-295.0,-73.0,3074.0,-1069.0,-838.0,23.0,99.0,-40.0,-1610.0,-494.0,-668.0,18.0,-81.0,-62.0,850.0,179.0,-429.0,59.0,63.0,-37.0,-129.0,312.0,-59.0,71.0,33.0,-21.0,84.0,433.0,391.0,55.0,11.0,-11.0,33.0,361.0,618.0,51.0,9.0,5.0,285.0,305.0,683.0,35.0,-23.0,7.0,130.0,145.0,507.0,30.0,-17.0,8.0,119.0,47.0,384.0,16.0,-30.0,3.0,88.0,-84.0,169.0DOWN,-72.0,113.0,-46.0,-354.0,-666.0,501.0,-99.0,-42.0,2.0,828.0,-120.0,2600.0,-146.0,-177.0,-5.0,4277.0,1644.0,2104.0,-45.0,58.0,126.0,-1338.0,933.0,113.0,-20.0,-76.0,76.0,304.0,410.0,-2668.0,81.0,107.0,83.0,-4358.0,-1448.0,-2708.0,17.0,-212.0,-82.0,1019.0,-515.0,-1416.0,29.0,96.0,-98.0,-1364.0,-319.0,-655.0,27.0,-2.0,-93.0,-158.0,144.0,-234.0,40.0,12.0,-31.0,871.0,220.0,71.0,54.0,32.0,-16.0,378.0,364.0,178.0,48.0,-2.0,10.0,1041.0,277.0,412.0,51.0,58.0,14.0,63.0,236.0,592.0,34.0,-9.0,20.0,252.0,-52.0,651.0,21.0,5.0,15.0,-253.0,-69.0,443.0,4.0,-27.0,9.0,-44.0,-208.0,220.0DOWN,-67.0,117.0,-21.0,65.0,-392.0,1471.0,-92.0,18.0,-42.0,-1216.0,571.0,3490.0,-158.0,-211.0,62.0,1975.0,1403.0,1691.0,-23.0,-44.0,105.0,-2354.0,484.0,-796.0,1.0,-159.0,88.0,1216.0,-427.0,-3542.0,103.0,63.0,-25.0,-2730.0,-1280.0,-2532.0,-12.0,-110.0,-75.0,2016.0,-192.0,-1431.0,23.0,78.0,-52.0,-158.0,-86.0,-650.0,38.0,60.0,-42.0,788.0,112.0,-24.0,59.0,78.0,-11.0,146.0,-121.0,702.0,58.0,69.0,3.0,-24.0,20.0,887.0,38.0,2.0,20.0,-562.0,136.0,979.0,25.0,-25.0,15.0,-349.0,96.0,488.0,20.0,-41.0,7.0,-457.0,70.0,285.0,27.0,-28.0,13.0,217.0,121.0,1.0,15.0,-14.0,15.0,158.0,74.0,105.0DOWN,-88.0,24.0,-2.0,432.0,389.0,2213.0,-156.0,-107.0,19.0,-317.0,759.0,3684.0,-126.0,-222.0,-13.0,-465.0,212.0,1151.0,17.0,-129.0,47.0,-587.0,69.0,-1689.0,93.0,-37.0,1.0,557.0,-572.0,-4104.0,68.0,47.0,8.0,-497.0,63.0,-2248.0,-29.0,74.0,-55.0,448.0,-43.0,-1425.0,5.0,114.0,-32.0,177.0,194.0,-379.0,61.0,72.0,2.0,376.0,24.0,372.0,61.0,49.0,4.0,195.0,-202.0,841.0,53.0,5.0,8.0,-19.0,-101.0,885.0,24.0,-12.0,1.0,11.0,22.0,519.0,24.0,-15.0,10.0,-216.0,63.0,282.0,28.0,-31.0,12.0,-94.0,-26.0,117.0,27.0,-13.0,4.0,-157.0,-28.0,151.0,19.0,-24.0,6.0,104.0,-135.0,92.0DOWN,-71.0,35.0,-7.0,-1066.0,656.0,2161.0,-135.0,-95.0,76.0,-93.0,2148.0,3102.0,-138.0,-130.0,-9.0,1683.0,701.0,858.0,-44.0,-60.0,133.0,-1072.0,203.0,-2676.0,0.0,77.0,0.0,-1584.0,-1926.0,-2997.0,73.0,37.0,109.0,-1882.0,-1315.0,-1886.0,9.0,2.0,-90.0,1109.0,-1498.0,116.0,33.0,-7.0,-68.0,-105.0,-709.0,-634.0,29.0,-23.0,-39.0,41.0,124.0,-448.0,23.0,-17.0,-27.0,176.0,251.0,-320.0,67.0,9.0,-5.0,168.0,396.0,-40.0,62.0,0.0,-9.0,35.0,247.0,373.0,76.0,16.0,-3.0,186.0,252.0,511.0,43.0,-12.0,-3.0,310.0,177.0,622.0,25.0,7.0,-6.0,200.0,250.0,573.0,4.0,-10.0,3.0,164.0,131.0,423.0DOWN,-11.0,63.0,-79.0,-12.0,1254.0,108.0,-50.0,-13.0,71.0,-670.0,1284.0,91.0,-83.0,-96.0,225.0,-419.0,879.0,51.0,-58.0,-75.0,191.0,236.0,-1048.0,-252.0,9.0,32.0,78.0,282.0,-1736.0,6.0,42.0,67.0,-72.0,16.0,-1593.0,205.0,26.0,68.0,-113.0,-476.0,-740.0,216.0,14.0,-5.0,-126.0,-45.0,65.0,-45.0,37.0,19.0,-63.0,-450.0,393.0,-15.0,39.0,-30.0,-23.0,83.0,471.0,-49.0,40.0,9.0,-3.0,-115.0,404.0,67.0,24.0,-32.0,19.0,208.0,316.0,67.0,17.0,-2.0,34.0,64.0,184.0,0.0,0.0,-28.0,28.0,289.0,64.0,6.0,0.0,8.0,14.0,-87.0,26.0,19.0,-4.0,-8.0,1.0,104.0,-38.0,13.0DOWN,-61.0,-50.0,177.0,-554.0,-138.0,-13.0,-19.0,-62.0,148.0,-108.0,-1016.0,-65.0,28.0,-9.0,31.0,416.0,-1474.0,-141.0,19.0,42.0,-87.0,214.0,-1082.0,-86.0,19.0,52.0,-114.0,-131.0,-395.0,-58.0,20.0,25.0,-99.0,-262.0,86.0,21.0,42.0,8.0,-48.0,-174.0,290.0,41.0,45.0,-9.0,-14.0,68.0,366.0,46.0,35.0,-7.0,9.0,49.0,344.0,77.0,17.0,-12.0,20.0,-31.0,283.0,78.0,8.0,-15.0,19.0,-102.0,189.0,78.0,3.0,-11.0,17.0,32.0,83.0,38.0,-1.0,-18.0,12.0,111.0,48.0,-20.0,0.0,0.0,6.0,33.0,27.0,-33.0,-4.0,-5.0,4.0,90.0,4.0,-39.0,-2.0,8.0,-1.0,-75.0,3.0,4.0DOWN,-8.0,34.0,-120.0,25.0,433.0,22.0,-38.0,24.0,-71.0,254.0,1066.0,365.0,-104.0,7.0,53.0,80.0,1241.0,11.0,-91.0,-75.0,214.0,-47.0,625.0,56.0,-41.0,-78.0,192.0,8.0,-949.0,-377.0,40.0,-65.0,117.0,-57.0,-1634.0,-87.0,32.0,57.0,-76.0,492.0,-1741.0,-178.0,22.0,75.0,-121.0,-635.0,-560.0,-5.0,20.0,60.0,-144.0,136.0,-89.0,-21.0,52.0,14.0,-73.0,-420.0,480.0,12.0,56.0,-9.0,-13.0,95.0,470.0,41.0,47.0,-4.0,13.0,-150.0,532.0,44.0,13.0,-22.0,36.0,133.0,331.0,83.0,4.0,-3.0,29.0,-76.0,182.0,51.0,-3.0,-17.0,29.0,91.0,60.0,46.0,-1.0,1.0,12.0,-171.0,14.0,45.0DOWN,-20.0,41.0,-118.0,127.0,896.0,45.0,-56.0,26.0,-19.0,84.0,1463.0,224.0,-91.0,-57.0,177.0,-701.0,1254.0,5.0,-61.0,-75.0,214.0,92.0,-499.0,-58.0,2.0,-70.0,168.0,-269.0,-1562.0,-206.0,34.0,23.0,-28.0,1048.0,-1965.0,-291.0,26.0,83.0,-101.0,-584.0,-854.0,-5.0,5.0,41.0,-130.0,120.0,-303.0,-55.0,40.0,41.0,-97.0,-528.0,234.0,114.0,48.0,-29.0,-44.0,144.0,380.0,49.0,50.0,2.0,-5.0,-66.0,493.0,65.0,26.0,-24.0,24.0,105.0,424.0,82.0,11.0,-6.0,35.0,-80.0,295.0,52.0,4.0,-14.0,34.0,5.0,116.0,55.0,1.0,-13.0,21.0,48.0,17.0,-15.0,0.0,-9.0,9.0,149.0,-33.0,-44.0DOWN,-27.0,25.0,-76.0,272.0,1001.0,178.0,-87.0,12.0,34.0,-474.0,1003.0,-104.0,-111.0,-78.0,188.0,-102.0,567.0,-197.0,-37.0,-42.0,188.0,-361.0,-850.0,-187.0,12.0,-63.0,125.0,542.0,-1506.0,5.0,60.0,71.0,-73.0,-121.0,-1487.0,68.0,11.0,19.0,-112.0,65.0,-749.0,-54.0,30.0,62.0,-128.0,-449.0,30.0,-73.0,35.0,-2.0,-76.0,132.0,237.0,-37.0,52.0,21.0,-37.0,-259.0,493.0,0.0,46.0,-17.0,-8.0,133.0,434.0,199.0,33.0,-10.0,33.0,-159.0,417.0,126.0,0.0,-33.0,46.0,116.0,205.0,138.0,-2.0,-13.0,32.0,87.0,95.0,-54.0,-5.0,-10.0,14.0,106.0,15.0,-66.0,7.0,4.0,5.0,-10.0,-1.0,-17.0DOWN,-38.0,19.0,-50.0,-45.0,1111.0,60.0,-87.0,16.0,17.0,-494.0,717.0,-551.0,-113.0,-64.0,171.0,-136.0,358.0,-142.0,-52.0,-31.0,174.0,-67.0,-789.0,22.0,22.0,-15.0,140.0,236.0,-949.0,406.0,62.0,32.0,-51.0,-44.0,-1318.0,71.0,23.0,7.0,-90.0,-290.0,-815.0,-95.0,0.0,-21.0,-103.0,189.0,-367.0,-10.0,17.0,24.0,-62.0,-138.0,33.0,-133.0,40.0,9.0,-36.0,153.0,197.0,-59.0,46.0,5.0,-15.0,-40.0,313.0,37.0,33.0,-3.0,-2.0,163.0,289.0,40.0,23.0,-6.0,5.0,7.0,285.0,74.0,16.0,-6.0,15.0,67.0,229.0,56.0,7.0,-4.0,21.0,-31.0,172.0,44.0,4.0,0.0,17.0,-46.0,76.0,40.0DOWN,-12.0,28.0,-105.0,80.0,648.0,-32.0,-48.0,19.0,-43.0,136.0,1156.0,6.0,-73.0,-1.0,141.0,-648.0,1231.0,-52.0,-70.0,-32.0,202.0,-154.0,80.0,28.0,-17.0,-44.0,170.0,-383.0,-961.0,-69.0,28.0,-23.0,18.0,499.0,-1552.0,-179.0,23.0,16.0,-72.0,-52.0,-1124.0,-80.0,10.0,33.0,-99.0,-55.0,-607.0,-47.0,6.0,17.0,-93.0,-102.0,-123.0,-8.0,28.0,6.0,-54.0,23.0,138.0,-15.0,42.0,0.0,-32.0,79.0,292.0,24.0,37.0,0.0,-17.0,85.0,336.0,40.0,29.0,-4.0,3.0,-134.0,369.0,83.0,10.0,-4.0,17.0,-62.0,272.0,35.0,7.0,-13.0,26.0,-9.0,189.0,63.0,2.0,-4.0,19.0,89.0,67.0,-20.0DOWN,-5.0,32.0,-93.0,198.0,451.0,116.0,-18.0,14.0,-46.0,184.0,942.0,21.0,-83.0,11.0,83.0,-194.0,1200.0,75.0,-81.0,-51.0,184.0,-84.0,409.0,-176.0,-45.0,-7.0,169.0,-596.0,-496.0,53.0,33.0,-55.0,80.0,263.0,-1340.0,-167.0,38.0,36.0,-43.0,-239.0,-1141.0,-23.0,5.0,2.0,-88.0,207.0,-873.0,-147.0,1.0,45.0,-107.0,-221.0,-303.0,-26.0,18.0,12.0,-70.0,-118.0,35.0,47.0,41.0,-3.0,-37.0,-74.0,243.0,24.0,35.0,-9.0,-16.0,94.0,321.0,9.0,29.0,-3.0,-8.0,67.0,298.0,57.0,15.0,-14.0,7.0,66.0,279.0,67.0,11.0,-7.0,14.0,-29.0,215.0,93.0,3.0,-10.0,22.0,-4.0,145.0,32.0DOWN,-3.0,37.0,-97.0,241.0,637.0,140.0,-63.0,22.0,-41.0,4.0,979.0,206.0,-86.0,15.0,83.0,-507.0,1153.0,77.0,-90.0,-73.0,183.0,-257.0,207.0,-10.0,-5.0,-36.0,171.0,-402.0,-639.0,-79.0,36.0,-53.0,94.0,519.0,-1420.0,-150.0,38.0,64.0,-61.0,61.0,-1265.0,-232.0,9.0,37.0,-97.0,10.0,-770.0,-105.0,11.0,29.0,-112.0,-280.0,-155.0,87.0,29.0,0.0,-58.0,-246.0,215.0,84.0,36.0,-11.0,-32.0,78.0,288.0,13.0,34.0,-4.0,-11.0,66.0,333.0,18.0,25.0,-2.0,-3.0,112.0,284.0,36.0,21.0,-8.0,12.0,-30.0,297.0,70.0,11.0,-9.0,19.0,34.0,192.0,51.0,1.0,-13.0,24.0,-10.0,121.0,26.0DOWN,-36.0,27.0,-91.0,26.0,1002.0,331.0,-57.0,-15.0,61.0,-361.0,964.0,34.0,-101.0,-72.0,172.0,-185.0,628.0,182.0,-18.0,-40.0,194.0,-186.0,-531.0,-247.0,17.0,-37.0,88.0,340.0,-1048.0,-81.0,35.0,47.0,-31.0,21.0,-1346.0,-248.0,0.0,33.0,-94.0,39.0,-916.0,-139.0,0.0,58.0,-125.0,-297.0,-273.0,60.0,31.0,13.0,-84.0,-96.0,206.0,42.0,46.0,6.0,-49.0,49.0,403.0,67.0,41.0,-4.0,-10.0,56.0,483.0,100.0,26.0,-11.0,16.0,-144.0,404.0,133.0,6.0,-19.0,36.0,-31.0,279.0,78.0,-1.0,-21.0,34.0,-26.0,112.0,17.0,-2.0,-13.0,27.0,-12.0,40.0,-6.0,-1.0,-4.0,10.0,79.0,-91.0,-48.0DOWN,-5.0,28.0,-108.0,215.0,411.0,10.0,-25.0,36.0,-58.0,-33.0,821.0,236.0,-62.0,8.0,38.0,112.0,838.0,307.0,-65.0,-40.0,144.0,-294.0,414.0,186.0,-31.0,-72.0,166.0,-134.0,-318.0,-93.0,6.0,-68.0,119.0,147.0,-1099.0,-322.0,22.0,32.0,1.0,248.0,-1345.0,-318.0,2.0,49.0,-93.0,255.0,-1058.0,-168.0,9.0,61.0,-131.0,64.0,-284.0,54.0,32.0,19.0,-107.0,-134.0,253.0,117.0,54.0,3.0,-56.0,-198.0,508.0,89.0,53.0,1.0,-11.0,-259.0,546.0,86.0,29.0,-20.0,33.0,-85.0,464.0,30.0,5.0,-11.0,40.0,-89.0,292.0,25.0,-4.0,-9.0,43.0,69.0,100.0,-55.0,-1.0,7.0,15.0,126.0,-53.0,-40.0DOWN,-19.0,26.0,-92.0,394.0,562.0,54.0,-39.0,30.0,-15.0,-187.0,881.0,176.0,-69.0,-39.0,106.0,439.0,624.0,16.0,-41.0,-13.0,185.0,-335.0,16.0,56.0,0.0,-76.0,147.0,314.0,-930.0,-265.0,30.0,23.0,46.0,-344.0,-1166.0,-130.0,8.0,16.0,-62.0,-19.0,-1120.0,-181.0,-7.0,58.0,-110.0,-254.0,-537.0,54.0,9.0,13.0,-123.0,68.0,-54.0,53.0,43.0,-8.0,-88.0,12.0,331.0,34.0,54.0,-6.0,-32.0,-122.0,555.0,62.0,41.0,-11.0,14.0,-158.0,538.0,111.0,9.0,-18.0,44.0,-90.0,387.0,22.0,-7.0,-12.0,40.0,258.0,107.0,-85.0,-4.0,-2.0,25.0,132.0,25.0,-21.0,5.0,2.0,12.0,111.0,-34.0,-9.0DOWN,7.0,70.0,-139.0,-244.0,420.0,54.0,-20.0,6.0,-51.0,-30.0,1016.0,75.0,-64.0,-20.0,50.0,-27.0,934.0,210.0,-78.0,-69.0,155.0,110.0,501.0,172.0,-29.0,-79.0,173.0,231.0,-429.0,56.0,25.0,-35.0,112.0,-15.0,-1021.0,-292.0,23.0,4.0,25.0,325.0,-1311.0,-376.0,-1.0,58.0,-95.0,-98.0,-1005.0,-219.0,-7.0,65.0,-138.0,191.0,-378.0,-57.0,31.0,45.0,-129.0,-377.0,207.0,131.0,63.0,11.0,-53.0,-298.0,544.0,102.0,49.0,-11.0,13.0,-59.0,523.0,-30.0,24.0,-19.0,57.0,54.0,406.0,27.0,-7.0,-4.0,49.0,174.0,97.0,37.0,0.0,-1.0,23.0,-168.0,1.0,143.0,2.0,4.0,-7.0,106.0,-68.0,48.0DOWN,-61.0,-15.0,158.0,117.0,-152.0,-38.0,2.0,-10.0,111.0,419.0,-997.0,-80.0,43.0,11.0,41.0,78.0,-1311.0,-40.0,22.0,4.0,-88.0,89.0,-1000.0,-182.0,-2.0,31.0,-117.0,-212.0,-297.0,-127.0,20.0,20.0,-82.0,-90.0,105.0,-49.0,33.0,-3.0,-27.0,-147.0,281.0,-31.0,37.0,7.0,-6.0,13.0,261.0,-12.0,23.0,2.0,-3.0,-20.0,250.0,20.0,21.0,8.0,1.0,20.0,239.0,99.0,14.0,-10.0,9.0,-65.0,225.0,102.0,8.0,-7.0,18.0,40.0,157.0,70.0,2.0,-11.0,20.0,1.0,81.0,21.0,0.0,-2.0,16.0,44.0,6.0,8.0,-3.0,-6.0,8.0,-15.0,-36.0,5.0,-3.0,2.0,-4.0,-23.0,-55.0,21.0DOWN,-43.0,-51.0,165.0,482.0,-299.0,2.0,4.0,-28.0,113.0,337.0,-1023.0,-105.0,30.0,18.0,9.0,252.0,-1175.0,-270.0,13.0,40.0,-88.0,-228.0,-871.0,-166.0,2.0,32.0,-107.0,63.0,-326.0,-129.0,20.0,26.0,-72.0,-134.0,-5.0,-23.0,38.0,6.0,-40.0,56.0,210.0,-41.0,39.0,12.0,-22.0,-93.0,327.0,34.0,31.0,-4.0,-1.0,-68.0,359.0,65.0,18.0,7.0,11.0,-102.0,328.0,73.0,13.0,-13.0,27.0,-182.0,220.0,60.0,-2.0,-6.0,21.0,-24.0,95.0,28.0,-1.0,-5.0,16.0,9.0,4.0,39.0,-3.0,0.0,6.0,190.0,-36.0,25.0,2.0,2.0,-1.0,50.0,-18.0,16.0,3.0,-9.0,2.0,-7.0,6.0,15.0DOWN,-45.0,-38.0,175.0,173.0,-54.0,-138.0,-9.0,-24.0,145.0,203.0,-933.0,-228.0,26.0,37.0,30.0,382.0,-1299.0,-145.0,16.0,34.0,-84.0,-218.0,-915.0,13.0,1.0,36.0,-112.0,30.0,-430.0,23.0,16.0,9.0,-83.0,-404.0,57.0,36.0,35.0,-6.0,-44.0,-193.0,213.0,-28.0,40.0,-4.0,-17.0,-139.0,351.0,-39.0,33.0,-7.0,-8.0,81.0,341.0,-19.0,21.0,-1.0,14.0,29.0,319.0,28.0,11.0,-11.0,20.0,150.0,199.0,39.0,2.0,-7.0,29.0,-78.0,114.0,53.0,-2.0,1.0,12.0,99.0,27.0,1.0,-2.0,6.0,11.0,-144.0,-3.0,39.0,0.0,0.0,1.0,121.0,-34.0,-8.0,-2.0,-6.0,0.0,-30.0,-32.0,28.0DOWN,-41.0,16.0,-35.0,-185.0,716.0,264.0,-53.0,-47.0,73.0,70.0,768.0,170.0,-61.0,-45.0,162.0,430.0,148.0,-139.0,-7.0,-56.0,154.0,71.0,-584.0,-159.0,30.0,7.0,74.0,37.0,-1075.0,-225.0,29.0,27.0,-41.0,-405.0,-993.0,-103.0,-9.0,37.0,-100.0,95.0,-672.0,-163.0,-9.0,24.0,-108.0,98.0,-218.0,-53.0,25.0,24.0,-81.0,-89.0,150.0,59.0,50.0,10.0,-30.0,-84.0,387.0,44.0,39.0,2.0,8.0,-162.0,388.0,42.0,25.0,-16.0,29.0,94.0,280.0,5.0,9.0,-2.0,22.0,68.0,132.0,34.0,3.0,-6.0,10.0,64.0,61.0,50.0,3.0,4.0,2.0,-143.0,51.0,71.0,3.0,0.0,5.0,-44.0,56.0,44.0DOWN,-30.0,-2.0,-68.0,-60.0,790.0,169.0,-51.0,-4.0,13.0,-258.0,936.0,117.0,-67.0,-37.0,121.0,-89.0,769.0,-4.0,-57.0,-40.0,171.0,-183.0,-166.0,-148.0,-3.0,-23.0,129.0,9.0,-903.0,-73.0,26.0,-10.0,36.0,249.0,-1326.0,-112.0,31.0,47.0,-76.0,252.0,-1024.0,-58.0,2.0,13.0,-95.0,107.0,-501.0,-126.0,7.0,26.0,-73.0,-166.0,-136.0,-9.0,20.0,10.0,-51.0,-83.0,80.0,3.0,38.0,13.0,-44.0,-69.0,247.0,41.0,43.0,3.0,-27.0,-132.0,421.0,72.0,40.0,-5.0,2.0,-133.0,440.0,57.0,20.0,-20.0,28.0,-6.0,355.0,31.0,2.0,-13.0,39.0,70.0,176.0,-15.0,-6.0,0.0,29.0,137.0,42.0,-9.0DOWN,-29.0,19.0,-60.0,-54.0,976.0,201.0,-56.0,-32.0,35.0,-333.0,1133.0,23.0,-64.0,-60.0,126.0,76.0,563.0,-19.0,-47.0,-38.0,168.0,86.0,-528.0,-176.0,18.0,-21.0,130.0,303.0,-1144.0,-60.0,31.0,34.0,18.0,182.0,-1220.0,-138.0,16.0,29.0,-75.0,-7.0,-931.0,-43.0,-6.0,37.0,-103.0,52.0,-464.0,-26.0,16.0,18.0,-87.0,-205.0,3.0,38.0,33.0,2.0,-53.0,-68.0,233.0,1.0,39.0,3.0,-27.0,-169.0,317.0,28.0,34.0,-6.0,-3.0,-40.0,328.0,30.0,24.0,3.0,10.0,-96.0,285.0,47.0,14.0,-9.0,16.0,96.0,226.0,29.0,5.0,-1.0,14.0,-48.0,171.0,57.0,6.0,-9.0,17.0,60.0,127.0,28.0DOWN,-18.0,16.0,-47.0,-72.0,569.0,125.0,-37.0,-13.0,14.0,-220.0,760.0,123.0,-60.0,-41.0,77.0,-262.0,668.0,-45.0,-47.0,-34.0,110.0,-136.0,91.0,-24.0,-7.0,-19.0,126.0,113.0,-604.0,-135.0,8.0,8.0,73.0,378.0,-1069.0,-30.0,4.0,19.0,-25.0,205.0,-1130.0,-75.0,1.0,27.0,-98.0,-38.0,-694.0,-3.0,24.0,10.0,-90.0,-216.0,-192.0,-77.0,30.0,6.0,-45.0,-91.0,161.0,-95.0,30.0,8.0,-22.0,-8.0,240.0,-55.0,30.0,9.0,-20.0,45.0,248.0,9.0,27.0,7.0,-10.0,-38.0,275.0,89.0,22.0,-5.0,4.0,-104.0,279.0,80.0,12.0,-15.0,19.0,-23.0,231.0,47.0,5.0,-6.0,20.0,3.0,141.0,-5.0DOWN,-28.0,-4.0,4.0,-71.0,996.0,141.0,-66.0,-20.0,100.0,-391.0,703.0,75.0,-60.0,-68.0,166.0,156.0,-128.0,-146.0,-24.0,-14.0,134.0,183.0,-998.0,-121.0,15.0,6.0,26.0,368.0,-1214.0,-94.0,23.0,47.0,-78.0,-51.0,-1028.0,23.0,11.0,5.0,-106.0,-27.0,-480.0,-48.0,21.0,20.0,-72.0,-149.0,-100.0,-59.0,36.0,-2.0,-31.0,-93.0,202.0,-56.0,34.0,5.0,-13.0,-84.0,245.0,-31.0,30.0,9.0,-12.0,-57.0,246.0,-10.0,28.0,8.0,-8.0,-47.0,278.0,39.0,19.0,-1.0,2.0,-96.0,249.0,78.0,14.0,-9.0,15.0,41.0,221.0,39.0,2.0,-11.0,20.0,72.0,119.0,21.0,0.0,-8.0,15.0,85.0,62.0,15.0DOWN,8.0,129.0,72.0,529.0,4.0,434.0,18.0,73.0,12.0,-207.0,-316.0,1060.0,9.0,-30.0,-24.0,55.0,-132.0,1026.0,-21.0,-77.0,-66.0,-375.0,-236.0,746.0,9.0,-80.0,-26.0,18.0,44.0,144.0,21.0,-52.0,-9.0,-188.0,-33.0,-53.0,39.0,-24.0,-5.0,-35.0,2.0,-189.0,39.0,-14.0,1.0,35.0,68.0,-264.0,30.0,-2.0,3.0,13.0,27.0,-266.0,19.0,7.0,0.0,15.0,65.0,-226.0,12.0,16.0,7.0,8.0,68.0,-175.0,8.0,17.0,6.0,18.0,57.0,-122.0,3.0,12.0,8.0,-12.0,41.0,-82.0,2.0,9.0,3.0,3.0,2.0,-36.0,0.0,2.0,1.0,-2.0,2.0,-23.0,-1.0,-2.0,2.0,46.0,-18.0,-19.0DOWN,-57.0,-18.0,3.0,-38.0,262.0,-754.0,-79.0,96.0,38.0,293.0,181.0,-653.0,-44.0,172.0,48.0,417.0,-108.0,160.0,13.0,129.0,38.0,134.0,-219.0,1005.0,28.0,20.0,-10.0,-247.0,-372.0,1243.0,6.0,-84.0,-31.0,-196.0,-253.0,815.0,-3.0,-95.0,-39.0,-120.0,-209.0,205.0,26.0,-80.0,-20.0,-45.0,-58.0,-116.0,38.0,-14.0,-8.0,-53.0,45.0,-245.0,39.0,-11.0,3.0,53.0,49.0,-263.0,25.0,2.0,3.0,108.0,50.0,-242.0,13.0,3.0,6.0,12.0,29.0,-216.0,3.0,17.0,-2.0,-65.0,68.0,-148.0,8.0,12.0,6.0,-13.0,105.0,-90.0,8.0,11.0,6.0,16.0,65.0,-54.0,2.0,15.0,8.0,16.0,29.0,3.0DOWN,-5.0,-123.0,-74.0,-704.0,231.0,-316.0,-56.0,-89.0,-68.0,468.0,497.0,-1151.0,-152.0,40.0,-5.0,477.0,-90.0,-1724.0,-104.0,203.0,112.0,328.0,-172.0,-838.0,6.0,192.0,145.0,-479.0,-299.0,827.0,121.0,107.0,71.0,-294.0,-32.0,1871.0,52.0,-33.0,-35.0,197.0,-206.0,1602.0,-18.0,-95.0,-89.0,-115.0,-308.0,775.0,-12.0,-104.0,-50.0,-64.0,-11.0,157.0,17.0,-77.0,-13.0,157.0,63.0,-144.0,52.0,-24.0,13.0,-13.0,83.0,-371.0,44.0,-8.0,6.0,18.0,-8.0,-393.0,31.0,4.0,1.0,52.0,-12.0,-390.0,15.0,16.0,-2.0,89.0,-24.0,-255.0,14.0,16.0,-3.0,3.0,102.0,-140.0,14.0,5.0,9.0,-3.0,89.0,-78.0DOWN,-65.0,-47.0,-4.0,-82.0,552.0,-1321.0,-109.0,150.0,118.0,-259.0,489.0,-1954.0,-66.0,204.0,94.0,502.0,57.0,260.0,22.0,174.0,58.0,-264.0,-507.0,1224.0,89.0,-32.0,-75.0,313.0,-538.0,2181.0,14.0,-59.0,-61.0,-255.0,-360.0,1034.0,-10.0,-76.0,-43.0,38.0,-135.0,363.0,-3.0,-56.0,-21.0,-28.0,-53.0,97.0,17.0,-27.0,-3.0,96.0,84.0,-21.0,33.0,-24.0,2.0,-26.0,42.0,-75.0,31.0,-19.0,-7.0,1.0,37.0,-164.0,32.0,-28.0,-3.0,77.0,28.0,-225.0,25.0,-5.0,-5.0,-17.0,35.0,-340.0,25.0,5.0,4.0,-50.0,96.0,-304.0,12.0,12.0,5.0,-109.0,28.0,-243.0,10.0,24.0,9.0,70.0,42.0,-104.0DOWN,-14.0,-162.0,-82.0,-217.0,271.0,-1270.0,-99.0,-22.0,-34.0,382.0,522.0,-987.0,-146.0,158.0,35.0,294.0,296.0,-1330.0,-91.0,247.0,152.0,212.0,55.0,437.0,44.0,138.0,121.0,-558.0,-395.0,795.0,110.0,0.0,46.0,277.0,-482.0,1681.0,29.0,-53.0,-58.0,27.0,-643.0,1344.0,-16.0,-78.0,-80.0,-42.0,-256.0,677.0,-10.0,-99.0,-62.0,-134.0,-17.0,174.0,28.0,-62.0,-22.0,-158.0,155.0,-91.0,45.0,-45.0,-7.0,-17.0,70.0,-283.0,47.0,-23.0,4.0,11.0,110.0,-352.0,32.0,-3.0,5.0,120.0,70.0,-392.0,21.0,10.0,10.0,24.0,79.0,-286.0,16.0,14.0,6.0,80.0,46.0,-225.0,6.0,19.0,10.0,-29.0,99.0,-99.0DOWN,-88.0,-27.0,-27.0,365.0,751.0,-979.0,-93.0,146.0,100.0,-389.0,441.0,-1442.0,-17.0,236.0,169.0,285.0,66.0,399.0,60.0,151.0,96.0,-602.0,-658.0,962.0,55.0,-20.0,-49.0,560.0,-699.0,1814.0,0.0,-48.0,-73.0,-349.0,-509.0,1178.0,-35.0,-80.0,-71.0,5.0,-252.0,558.0,8.0,-82.0,-37.0,-180.0,75.0,158.0,30.0,-65.0,-24.0,-57.0,85.0,-151.0,45.0,-38.0,-9.0,9.0,36.0,-284.0,33.0,-13.0,-10.0,67.0,36.0,-336.0,30.0,-1.0,2.0,59.0,90.0,-293.0,22.0,5.0,7.0,66.0,141.0,-258.0,22.0,10.0,12.0,-19.0,164.0,-207.0,9.0,8.0,7.0,-43.0,101.0,-164.0,8.0,20.0,11.0,-6.0,41.0,-102.0DOWN,-86.0,-22.0,-33.0,347.0,302.0,-1052.0,-94.0,155.0,45.0,-174.0,210.0,-1073.0,-50.0,206.0,105.0,210.0,-254.0,13.0,28.0,144.0,105.0,-587.0,-260.0,1201.0,63.0,-12.0,26.0,198.0,-528.0,1687.0,17.0,-68.0,-64.0,-328.0,-343.0,1246.0,0.0,-88.0,-74.0,16.0,-231.0,326.0,-1.0,-98.0,-53.0,-54.0,37.0,-13.0,28.0,-43.0,-13.0,146.0,39.0,-179.0,42.0,-34.0,-1.0,56.0,127.0,-284.0,40.0,-10.0,4.0,-83.0,128.0,-330.0,29.0,-1.0,7.0,-13.0,171.0,-332.0,15.0,9.0,8.0,29.0,79.0,-275.0,5.0,25.0,11.0,89.0,77.0,-173.0,6.0,21.0,15.0,68.0,21.0,-102.0,4.0,27.0,15.0,-37.0,72.0,-4.0DOWN,-34.0,-62.0,-32.0,-60.0,253.0,-774.0,-87.0,35.0,-8.0,-29.0,287.0,-1412.0,-80.0,179.0,45.0,-180.0,72.0,-981.0,-20.0,170.0,91.0,-111.0,24.0,186.0,46.0,106.0,98.0,-197.0,-370.0,1634.0,42.0,6.0,19.0,382.0,-524.0,1817.0,-13.0,-74.0,-70.0,-144.0,-400.0,1152.0,-13.0,-100.0,-85.0,-120.0,-85.0,225.0,16.0,-95.0,-39.0,-324.0,44.0,-257.0,50.0,-46.0,-2.0,69.0,-28.0,-397.0,50.0,-15.0,-3.0,47.0,67.0,-395.0,37.0,-6.0,9.0,21.0,135.0,-328.0,18.0,11.0,1.0,47.0,163.0,-307.0,18.0,7.0,15.0,74.0,145.0,-218.0,12.0,17.0,12.0,-18.0,83.0,-161.0,7.0,14.0,11.0,80.0,12.0,-54.0DOWN,-33.0,-114.0,-49.0,-5.0,52.0,-962.0,-66.0,2.0,-22.0,192.0,304.0,-1616.0,-96.0,177.0,69.0,-578.0,381.0,-1691.0,-69.0,225.0,125.0,-359.0,352.0,-121.0,30.0,136.0,111.0,-145.0,-414.0,1569.0,51.0,0.0,9.0,603.0,-676.0,2322.0,28.0,-60.0,-75.0,481.0,